time_utc,time_gps_utc,elapsed_s,sample_n,armed,flight_mode,mission_seq,wp_dist_m,roll_deg,pitch_deg,yaw_deg,roll_rate_deg_s,pitch_rate_deg_s,yaw_rate_deg_s,lat_deg,lon_deg,alt_msl_m,alt_rel_m,vel_n_m_s,vel_e_m_s,vel_d_m_s,heading_deg,north_m,east_m,gps_lat_deg,gps_lon_deg,gps_alt_m,gps_speed_m_s,gps_course_deg,gps_sats,gps_fix_type,gps_hdop,gps_vdop,groundspeed_m_s,airspeed_m_s,climb_m_s,throttle_pct,acc_x_m_s2,acc_y_m_s2,acc_z_m_s2,gyro_x_rad_s,gyro_y_rad_s,gyro_z_rad_s,mag_x_mgauss,mag_y_mgauss,mag_z_mgauss,batt_voltage_v,batt_current_a,batt_consumed_mah,batt_remaining_pct,batt_temp_c,motor1_us,motor2_us,motor3_us,motor4_us,vib_x_m_s2,vib_y_m_s2,vib_z_m_s2,clip_0,clip_1,clip_2,ekf_flags,ekf_vel_var,ekf_pos_horiz_var,ekf_pos_vert_var,ekf_compass_var,baro_press_hpa,baro_temp_c,ap_wind_dir_deg,ap_wind_speed_m_s,ap_wind_speed_z_m_s,Sched_UTC,Sched_Error_ms,Cycle_ms,Slots_Skipped,RTC_UTC,RTC_Temp_C,RTC_Age_ms,HB_Armed,HB_CustomMode,HB_BaseMode,HB_SystemStatus,HB_rx_UTC,HB_Age_ms,ATT_rx_UTC,ATT_Age_ms,IMU_rx_UTC,IMU_Age_ms,RIMU_Xacc,RIMU_Yacc,RIMU_Zacc,RIMU_Xgyro,RIMU_Ygyro,RIMU_Zgyro,RIMU_rx_UTC,RIMU_Age_ms,GPS_rx_UTC,GPS_Age_ms,POS_rx_UTC,POS_Age_ms,SYST_UnixUsec,SYST_BootMs,SYST_rx_UTC,SYST_Age_ms,BAT_Cell2_V,BAT_Cell3_V,BAT_Cell4_V,BAT_Energy_hJ,BAT_Temp_cdegC,BAT_TimeRemaining_s,BAT_ChargeState,BAT_rx_UTC,BAT_Age_ms,SYS_Voltage_V,SYS_Current_A,SYS_BatteryRemaining_pct,SYS_Load_pct,SYS_DropRateComm,SYS_ErrorsComm,SYS_SensorsHealth,SYS_rx_UTC,SYS_Age_ms,PWR_Vcc_V,PWR_Vservo_V,PWR_Flags,PWR_rx_UTC,PWR_Age_ms,ESC1_RPM,ESC2_RPM,ESC3_RPM,ESC4_RPM,ESC1_V,ESC2_V,ESC3_V,ESC4_V,ESC1_A,ESC2_A,ESC3_A,ESC4_A,ESC1_degC,ESC2_degC,ESC3_degC,ESC4_degC,ESC_rx_UTC,ESC_Age_ms,VFR_Heading_deg,VFR_Alt_m,VFR_rx_UTC,VFR_Age_ms,SRV5_us,SRV6_us,SRV7_us,SRV8_us,SRV_rx_UTC,SRV_Age_ms,RC1_us,RC2_us,RC3_us,RC4_us,RC_RSSI,RC_rx_UTC,RC_Age_ms,NAV_RollTarget_deg,NAV_PitchTarget_deg,NAV_AltError_m,NAV_AspdError_m_s,NAV_XtrackError_m,NAV_rx_UTC,NAV_Age_ms,MIS_rx_UTC,MIS_Age_ms,VIB_rx_UTC,VIB_Age_ms,EKF_rx_UTC,EKF_Age_ms,BARO_rx_UTC,BARO_Age_ms,WND_rx_UTC,WND_Age_ms
2026-09-25T16:39:58.882Z,2026-09-25T16:40:00.989Z,0.0,0,False,POSHOLD,1,0,-1.455313,1.088047,-168.029041,-0.002865,-0.011459,0.008594,39.0187668,-104.8934907,2162.34,0.044,0.0,0.01,0.0,191.98,0.0,0.017,39.0187668,-104.8934909,2166.45,0.0,270.0,31,6,0.7,1.36,0.014,0.016,0.008,0,0.098066,0.05884,-9.816457,0.0,0.0,0.0,-222,9,450,16.553,0.0,0,99,,1000,1000,1000,1000,0.021,0.02,0.022,0,0,0,831,0.0273,0.0056,0.0044,0.0066,790.72,45.16,-180.0,0.0,0.0,2026-09-25T16:39:58.839Z,0.041,44.504,0,2026-04-01 14:44:01,17.75,-43.1,,,,,,,2026-09-25T16:39:58.876Z,6.5,2026-09-25T16:39:58.877Z,5.9,8,5,-999,0,0,0,2026-09-25T16:39:58.873Z,9.6,2026-09-25T16:39:58.875Z,7.5,2026-09-25T16:39:58.872Z,10.8,1790354400794933,105585,2026-09-25T16:39:58.847Z,35.3,,,,0,,,1,2026-09-25T16:39:58.874Z,9.0,16.553,0.0,99,31.6,0.0,0,1198652463,2026-09-25T16:39:58.874Z,8.6,5.254,0.019,1,2026-09-25T16:39:58.843Z,39.1,,,,,,,,,,,,,,,,,,,191,2162.34,2026-09-25T16:39:58.872Z,10.5,0,1500,0,0,2026-09-25T16:39:58.872Z,10.0,1508,1487,1528,1493,255,2026-09-25T16:39:58.875Z,7.9,0.0,0.0,0.0,0.0,0.0,2026-09-25T16:39:58.874Z,8.2,2026-09-25T16:39:58.863Z,19.9,2026-09-25T16:39:58.866Z,16.7,2026-09-25T16:39:58.865Z,17.4,2026-09-25T16:39:58.864Z,19.0,2026-09-25T16:39:58.864Z,18.1
2026-09-25T16:39:58.889Z,2026-09-25T16:40:00.996Z,0.05,1,False,POSHOLD,1,0,-1.455313,1.088047,-168.029041,-0.002865,-0.011459,0.008594,39.0187668,-104.8934907,2162.34,0.044,0.0,0.01,0.0,191.98,0.0,0.017,39.0187668,-104.8934909,2166.45,0.0,270.0,31,6,0.7,1.36,0.014,0.016,0.008,0,0.098066,0.05884,-9.816457,0.0,0.0,0.0,-222,9,450,16.553,0.0,0,99,,1000,1000,1000,1000,0.021,0.02,0.022,0,0,0,831,0.0273,0.0056,0.0044,0.0066,790.72,45.16,-180.0,0.0,0.0,2026-09-25T16:39:58.889Z,0.003,1.371,0,2026-04-01 14:44:01,17.75,6.8,,,,,,,2026-09-25T16:39:58.876Z,13.5,2026-09-25T16:39:58.877Z,12.8,8,5,-999,0,0,0,2026-09-25T16:39:58.873Z,16.5,2026-09-25T16:39:58.875Z,14.5,2026-09-25T16:39:58.872Z,17.8,1790354400794933,105585,2026-09-25T16:39:58.847Z,42.3,,,,0,,,1,2026-09-25T16:39:58.874Z,15.9,16.553,0.0,99,31.6,0.0,0,1198652463,2026-09-25T16:39:58.874Z,15.6,5.254,0.019,1,2026-09-25T16:39:58.843Z,46.1,,,,,,,,,,,,,,,,,,,191,2162.34,2026-09-25T16:39:58.872Z,17.5,0,1500,0,0,2026-09-25T16:39:58.872Z,17.0,1508,1487,1528,1493,255,2026-09-25T16:39:58.875Z,14.9,0.0,0.0,0.0,0.0,0.0,2026-09-25T16:39:58.874Z,15.2,2026-09-25T16:39:58.863Z,26.9,2026-09-25T16:39:58.866Z,23.7,2026-09-25T16:39:58.865Z,24.3,2026-09-25T16:39:58.864Z,26.0,2026-09-25T16:39:58.864Z,25.1
2026-09-25T16:39:58.943Z,2026-09-25T16:40:01.050Z,0.1,2,False,POSHOLD,1,0,-1.45474,1.08862,-168.03076,0.001719,-0.019481,-0.014897,39.0187668,-104.8934907,2162.34,0.044,0.0,0.01,0.0,191.98,0.0,0.017,39.0187668,-104.8934909,2166.45,0.0,270.0,31,6,0.7,1.36,0.014,0.016,0.008,0,0.098066,0.05884,-9.816457,0.0,0.0,0.0,-223,9,451,16.553,0.0,0,99,,1000,1000,1000,1000,0.021,0.02,0.022,0,0,0,831,0.0273,0.0056,0.0044,0.0066,790.72,45.16,-180.0,0.0,0.0,2026-09-25T16:39:58.939Z,0.001,5.151,0,2026-04-01 14:44:01,17.75,56.8,,,,,,,2026-09-25T16:39:58.940Z,2.9,2026-09-25T16:39:58.941Z,2.3,8,5,-999,0,0,0,2026-09-25T16:39:58.873Z,70.3,2026-09-25T16:39:58.875Z,68.2,2026-09-25T16:39:58.872Z,71.5,1790354400794933,105585,2026-09-25T16:39:58.847Z,96.0,,,,0,,,1,2026-09-25T16:39:58.874Z,69.7,16.553,0.0,99,31.6,0.0,0,1198652463,2026-09-25T16:39:58.874Z,69.3,5.254,0.019,1,2026-09-25T16:39:58.843Z,99.8,,,,,,,,,,,,,,,,,,,191,2162.34,2026-09-25T16:39:58.872Z,71.2,0,1500,0,0,2026-09-25T16:39:58.872Z,70.7,1508,1487,1528,1493,255,2026-09-25T16:39:58.875Z,68.6,0.0,0.0,0.0,0.0,0.0,2026-09-25T16:39:58.874Z,69.0,2026-09-25T16:39:58.863Z,80.7,2026-09-25T16:39:58.866Z,77.4,2026-09-25T16:39:58.865Z,78.1,2026-09-25T16:39:58.864Z,79.7,2026-09-25T16:39:58.864Z,78.8
2026-09-25T16:39:58.996Z,2026-09-25T16:40:01.103Z,0.15,3,False,POSHOLD,1,0,-1.453021,1.089193,-168.03076,0.024637,-0.009167,-0.005157,39.0187668,-104.8934907,2162.34,0.046,0.0,0.01,0.0,191.97,0.0,0.017,39.0187668,-104.8934909,2166.45,0.0,270.0,31,6,0.7,1.36,0.014,0.016,0.008,0,0.098066,0.068647,-9.816457,0.0,0.0,0.0,-223,9,451,16.559,0.02,0,99,,1000,1000,1000,1000,0.021,0.02,0.022,0,0,0,831,0.0273,0.0056,0.0044,0.0066,790.72,45.16,-180.0,0.0,0.0,2026-09-25T16:39:58.989Z,0.002,7.981,0,2026-04-01 14:44:01,17.75,106.8,0.0,0.0,0.0,0.0,2026-09-25T16:39:58.992Z,3.8,2026-09-25T16:39:58.993Z,2.9,2026-09-25T16:39:58.994Z,2.2,7,6,-998,0,0,0,2026-09-25T16:39:58.991Z,5.0,2026-09-25T16:39:58.875Z,120.9,2026-09-25T16:39:58.990Z,6.3,1790354400794933,105585,2026-09-25T16:39:58.847Z,148.7,,,,0,,,1,2026-09-25T16:39:58.991Z,4.5,16.553,0.0,99,31.6,0.0,0,1198652463,2026-09-25T16:39:58.874Z,122.0,5.254,0.019,1,2026-09-25T16:39:58.843Z,152.5,,,,,,,,,,,,,,,,,,,191,2162.34,2026-09-25T16:39:58.990Z,5.9,0,1500,0,0,2026-09-25T16:39:58.990Z,5.5,1508,1487,1528,1493,255,2026-09-25T16:39:58.875Z,121.3,0.0,0.0,0.0,0.0,0.0,2026-09-25T16:39:58.874Z,121.7,2026-09-25T16:39:58.863Z,133.4,2026-09-25T16:39:58.866Z,130.1,2026-09-25T16:39:58.865Z,130.8,2026-09-25T16:39:58.864Z,132.5,2026-09-25T16:39:58.864Z,131.5
2026-09-25T16:39:59.043Z,2026-09-25T16:40:01.150Z,0.2,4,False,POSHOLD,1,0,-1.452448,1.089766,-168.031333,0.020054,0.011459,0.005157,39.0187668,-104.8934907,2162.34,0.046,0.0,0.01,0.0,191.97,0.0,0.017,39.0187668,-104.8934909,2166.45,0.0,270.0,31,6,0.7,1.36,0.014,0.016,0.008,0,0.098066,0.05884,-9.816457,0.0,0.0,0.0,-221,9,450,16.559,0.02,0,99,,1000,1000,1000,1000,0.021,0.02,0.022,0,0,0,831,0.0273,0.0056,0.0044,0.0066,790.72,45.16,-180.0,0.0,0.0,2026-09-25T16:39:59.039Z,0.002,5.103,0,2026-04-01 14:44:01,17.75,156.8,0.0,0.0,0.0,0.0,2026-09-25T16:39:58.992Z,51.0,2026-09-25T16:39:59.040Z,2.9,2026-09-25T16:39:59.041Z,2.2,7,6,-998,0,0,0,2026-09-25T16:39:58.991Z,52.2,2026-09-25T16:39:58.875Z,168.1,2026-09-25T16:39:58.990Z,53.5,1790354400794933,105585,2026-09-25T16:39:58.847Z,195.9,,,,0,,,1,2026-09-25T16:39:58.991Z,51.7,16.553,0.0,99,31.6,0.0,0,1198652463,2026-09-25T16:39:58.874Z,169.2,5.254,0.019,1,2026-09-25T16:39:58.843Z,199.7,,,,,,,,,,,,,,,,,,,191,2162.34,2026-09-25T16:39:58.990Z,53.1,0,1500,0,0,2026-09-25T16:39:58.990Z,52.7,1508,1487,1528,1493,255,2026-09-25T16:39:58.875Z,168.5,0.0,0.0,0.0,0.0,0.0,2026-09-25T16:39:58.874Z,168.9,2026-09-25T16:39:58.863Z,180.6,2026-09-25T16:39:58.866Z,177.3,2026-09-25T16:39:58.865Z,178.0,2026-09-25T16:39:58.864Z,179.6,2026-09-25T16:39:58.864Z,178.7
2026-09-25T16:39:59.096Z,2026-09-25T16:40:01.203Z,0.25,5,False,POSHOLD,1,0,-1.451302,1.089766,-168.033624,-0.002292,-0.002865,0.013178,39.0187668,-104.8934907,2162.34,0.049,0.0,0.01,0.0,191.97,0.0,0.017,39.0187668,-104.8934909,2166.46,0.02,70.82,31,6,0.7,1.36,0.013,0.016,0.009,0,0.107873,0.05884,-9.816457,0.0,0.0,0.0,-221,9,450,16.56,0.01,0,99,,1000,1000,1000,1000,0.021,0.02,0.022,0,0,0,831,0.0273,0.0056,0.0044,0.0066,790.72,45.16,-180.0,0.0,0.0,2026-09-25T16:39:59.089Z,0.002,8.591,0,2026-04-01 14:44:01,17.75,206.8,0.0,0.0,0.0,0.0,2026-09-25T16:39:58.992Z,104.4,2026-09-25T16:39:59.094Z,2.8,2026-09-25T16:39:59.094Z,2.2,7,6,-999,0,0,0,2026-09-25T16:39:59.091Z,5.7,2026-09-25T16:39:59.093Z,3.8,2026-09-25T16:39:59.090Z,6.9,1790354400794933,105585,2026-09-25T16:39:58.847Z,249.4,,,,0,,,1,2026-09-25T16:39:59.091Z,5.2,16.56,0.01,99,31.7,0.0,0,1198652463,2026-09-25T16:39:59.092Z,4.9,5.254,0.019,1,2026-09-25T16:39:58.843Z,253.1,,,,,,,,,,,,,,,,,,,191,2162.34,2026-09-25T16:39:59.090Z,6.6,0,1500,0,0,2026-09-25T16:39:59.090Z,6.1,1508,1487,1528,1493,255,2026-09-25T16:39:59.092Z,4.2,0.0,0.0,0.0,0.0,0.0,2026-09-25T16:39:59.092Z,4.5,2026-09-25T16:39:58.863Z,234.0,2026-09-25T16:39:58.866Z,230.7,2026-09-25T16:39:58.865Z,231.4,2026-09-25T16:39:58.864Z,233.1,2026-09-25T16:39:58.864Z,232.1
2026-09-25T16:39:59.143Z,2026-09-25T16:40:01.250Z,0.3,6,False,POSHOLD,1,0,-1.450729,1.089193,-168.035916,-0.004011,-0.008594,-0.032659,39.0187668,-104.8934907,2162.34,0.049,0.0,0.01,0.0,191.97,0.0,0.017,39.0187668,-104.8934909,2166.46,0.02,70.82,31,6,0.7,1.36,0.013,0.016,0.009,0,0.098066,0.05884,-9.816457,0.0,0.0,0.0,-222,9,451,16.56,0.01,0,99,,1000,1000,1000,1000,0.021,0.02,0.022,0,0,0,831,0.0273,0.0056,0.0044,0.0066,790.72,45.16,-180.0,0.0,0.0,2026-09-25T16:39:59.139Z,0.002,5.207,0,2026-04-01 14:44:01,17.75,256.8,0.0,0.0,0.0,0.0,2026-09-25T16:39:58.992Z,151.1,2026-09-25T16:39:59.140Z,2.9,2026-09-25T16:39:59.141Z,2.2,7,6,-999,0,0,0,2026-09-25T16:39:59.091Z,52.3,2026-09-25T16:39:59.093Z,50.5,2026-09-25T16:39:59.090Z,53.6,1790354400794933,105585,2026-09-25T16:39:58.847Z,296.0,,,,0,,,1,2026-09-25T16:39:59.091Z,51.9,16.56,0.01,99,31.7,0.0,0,1198652463,2026-09-25T16:39:59.092Z,51.5,5.254,0.019,1,2026-09-25T16:39:58.843Z,299.8,,,,,,,,,,,,,,,,,,,191,2162.34,2026-09-25T16:39:59.090Z,53.3,0,1500,0,0,2026-09-25T16:39:59.090Z,52.8,1508,1487,1528,1493,255,2026-09-25T16:39:59.092Z,50.9,0.0,0.0,0.0,0.0,0.0,2026-09-25T16:39:59.092Z,51.2,2026-09-25T16:39:58.863Z,280.7,2026-09-25T16:39:58.866Z,277.4,2026-09-25T16:39:58.865Z,278.1,2026-09-25T16:39:58.864Z,279.7,2026-09-25T16:39:58.864Z,278.8
2026-09-25T16:39:59.195Z,2026-09-25T16:40:01.302Z,0.35,7,False,POSHOLD,1,0,-1.449583,1.088047,-168.036489,0.025783,-0.018908,0.002292,39.0187668,-104.8934907,2162.35,0.051,0.0,0.01,0.0,191.97,0.0,0.017,39.0187668,-104.8934909,2166.46,0.02,70.82,31,6,0.7,1.36,0.014,0.016,0.009,0,0.107873,0.068647,-9.80665,0.0,0.0,0.0,-222,9,451,16.561,0.01,0,99,,1000,1000,1000,1000,0.021,0.02,0.022,0,0,0,831,0.0273,0.0056,0.0044,0.0066,790.72,45.16,-180.0,0.0,0.0,2026-09-25T16:39:59.189Z,0.002,7.273,0,2026-04-01 14:44:01,17.75,306.8,0.0,0.0,0.0,0.0,2026-09-25T16:39:58.992Z,203.2,2026-09-25T16:39:59.192Z,2.9,2026-09-25T16:39:59.193Z,2.2,7,5,-999,0,0,0,2026-09-25T16:39:59.191Z,4.3,2026-09-25T16:39:59.093Z,102.6,2026-09-25T16:39:59.190Z,5.6,1790354400794933,105585,2026-09-25T16:39:58.847Z,348.1,,,,0,,,1,2026-09-25T16:39:59.191Z,3.9,16.56,0.01,99,31.7,0.0,0,1198652463,2026-09-25T16:39:59.092Z,103.6,5.254,0.019,1,2026-09-25T16:39:58.843Z,351.9,,,,,,,,,,,,,,,,,,,191,2162.35,2026-09-25T16:39:59.190Z,5.2,0,1500,0,0,2026-09-25T16:39:59.191Z,4.8,1508,1487,1528,1493,255,2026-09-25T16:39:59.092Z,102.9,0.0,0.0,0.0,0.0,0.0,2026-09-25T16:39:59.092Z,103.3,2026-09-25T16:39:58.863Z,332.7,2026-09-25T16:39:58.866Z,329.5,2026-09-25T16:39:58.865Z,330.2,2026-09-25T16:39:58.864Z,331.8,2026-09-25T16:39:58.864Z,330.9
2026-09-25T16:39:59.243Z,2026-09-25T16:40:01.350Z,0.4,8,False,POSHOLD,1,0,-1.44901,1.088047,-168.037062,0.003438,-0.023491,-0.045264,39.0187668,-104.8934907,2162.35,0.051,0.0,0.01,0.0,191.97,0.0,0.017,39.0187668,-104.8934909,2166.46,0.02,70.82,31,6,0.7,1.36,0.014,0.016,0.009,0,0.098066,0.05884,-9.816457,0.0,0.0,0.0,-222,9,450,16.561,0.01,0,99,,1000,1000,1000,1000,0.021,0.02,0.022,0,0,0,831,0.0273,0.0056,0.0044,0.0066,790.72,45.16,-180.0,0.0,0.0,2026-09-25T16:39:59.239Z,0.002,5.123,0,2026-04-01 14:44:01,17.75,356.8,0.0,0.0,0.0,0.0,2026-09-25T16:39:58.992Z,251.0,2026-09-25T16:39:59.240Z,2.9,2026-09-25T16:39:59.241Z,2.2,7,5,-999,0,0,0,2026-09-25T16:39:59.191Z,52.2,2026-09-25T16:39:59.093Z,150.4,2026-09-25T16:39:59.190Z,53.5,1790354400794933,105585,2026-09-25T16:39:58.847Z,396.0,,,,0,,,1,2026-09-25T16:39:59.191Z,51.7,16.56,0.01,99,31.7,0.0,0,1198652463,2026-09-25T16:39:59.092Z,151.5,5.254,0.019,1,2026-09-25T16:39:58.843Z,399.7,,,,,,,,,,,,,,,,,,,191,2162.35,2026-09-25T16:39:59.190Z,53.1,0,1500,0,0,2026-09-25T16:39:59.191Z,52.6,1508,1487,1528,1493,255,2026-09-25T16:39:59.092Z,150.8,0.0,0.0,0.0,0.0,0.0,2026-09-25T16:39:59.092Z,151.1,2026-09-25T16:39:58.863Z,380.6,2026-09-25T16:39:58.866Z,377.3,2026-09-25T16:39:58.865Z,378.0,2026-09-25T16:39:58.864Z,379.7,2026-09-25T16:39:58.864Z,378.7
2026-09-25T16:39:59.298Z,2026-09-25T16:40:01.405Z,0.45,9,False,POSHOLD,1,0,-1.448437,1.08862,-168.036489,-0.00974,-0.001146,-0.006303,39.0187668,-104.8934907,2162.35,0.056,0.0,0.01,-0.01,191.97,0.0,0.017,39.0187668,-104.8934909,2166.46,0.0,12.52,31,6,0.7,1.36,0.013,0.017,0.011,0,0.098066,0.05884,-9.826263,0.0,0.0,0.0,-222,9,450,16.553,0.01,0,99,,1000,1000,1000,1000,0.021,0.021,0.021,0,0,0,831,0.0285,0.0053,0.0069,0.012,790.725,45.16,-180.0,0.0,0.0,2026-09-25T16:39:59.289Z,0.002,9.616,0,2026-04-01 14:44:01,17.75,406.8,0.0,0.0,0.0,0.0,2026-09-25T16:39:58.992Z,305.5,2026-09-25T16:39:59.294Z,3.8,2026-09-25T16:39:59.294Z,3.2,8,6,-999,0,0,0,2026-09-25T16:39:59.291Z,6.7,2026-09-25T16:39:59.293Z,4.8,2026-09-25T16:39:59.290Z,8.0,1790354400794933,105585,2026-09-25T16:39:58.847Z,450.4,,,,0,,,1,2026-09-25T16:39:59.291Z,6.2,16.553,0.01,99,31.0,0.0,0,1198652463,2026-09-25T16:39:59.292Z,5.9,5.254,0.019,1,2026-09-25T16:39:58.843Z,454.2,,,,,,,,,,,,,,,,,,,191,2162.35,2026-09-25T16:39:59.290Z,7.6,0,1500,0,0,2026-09-25T16:39:59.291Z,7.1,1508,1487,1528,1493,255,2026-09-25T16:39:59.292Z,5.2,0.0,0.0,0.0,0.0,0.0,2026-09-25T16:39:59.292Z,5.5,2026-09-25T16:39:58.863Z,435.1,2026-09-25T16:39:59.297Z,0.2,2026-09-25T16:39:59.297Z,0.6,2026-09-25T16:39:59.297Z,0.9,2026-09-25T16:39:58.864Z,433.2
2026-09-25T16:39:59.345Z,2026-09-25T16:40:01.452Z,0.5,10,False,POSHOLD,1,0,-1.446718,1.08862,-168.035916,0.026356,0.008594,0.023491,39.0187668,-104.8934907,2162.35,0.056,0.0,0.01,-0.01,191.97,0.0,0.017,39.0187668,-104.8934909,2166.46,0.0,12.52,31,6,0.7,1.36,0.013,0.017,0.011,0,0.107873,0.05884,-9.826263,0.0,0.0,0.0,-223,9,451,16.553,0.01,0,99,,1000,1000,1000,1000,0.021,0.021,0.021,0,0,0,831,0.0285,0.0053,0.0069,0.012,790.725,45.16,-180.0,0.0,0.0,2026-09-25T16:39:59.339Z,0.003,6.843,0,2026-04-01 14:44:01,17.75,456.8,0.0,0.0,0.0,0.0,2026-09-25T16:39:58.992Z,352.5,2026-09-25T16:39:59.341Z,3.8,2026-09-25T16:39:59.342Z,2.7,8,6,-999,0,0,0,2026-09-25T16:39:59.291Z,53.7,2026-09-25T16:39:59.293Z,51.9,2026-09-25T16:39:59.290Z,55.0,1790354400794933,105585,2026-09-25T16:39:58.847Z,497.5,,,,0,,,1,2026-09-25T16:39:59.291Z,53.2,16.553,0.01,99,31.0,0.0,0,1198652463,2026-09-25T16:39:59.292Z,52.9,5.254,0.019,1,2026-09-25T16:39:58.843Z,501.2,,,,,,,,,,,,,,,,,,,191,2162.35,2026-09-25T16:39:59.290Z,54.6,0,1500,0,0,2026-09-25T16:39:59.291Z,54.1,1508,1487,1528,1493,255,2026-09-25T16:39:59.292Z,52.2,0.0,0.0,0.0,0.0,0.0,2026-09-25T16:39:59.292Z,52.6,2026-09-25T16:39:58.863Z,482.1,2026-09-25T16:39:59.297Z,47.3,2026-09-25T16:39:59.297Z,47.6,2026-09-25T16:39:59.297Z,47.9,2026-09-25T16:39:58.864Z,480.2
2026-09-25T16:39:59.395Z,2026-09-25T16:40:01.502Z,0.55,11,False,POSHOLD,1,0,-1.446718,1.089766,-168.034197,-0.014897,0.01547,-0.009167,39.0187668,-104.8934907,2162.35,0.059,0.0,0.01,-0.01,191.97,0.0,0.017,39.0187668,-104.8934909,2166.46,0.0,12.52,31,6,0.7,1.36,0.013,0.017,0.011,0,0.098066,0.068647,-9.826263,0.0,0.0,0.0,-223,9,451,16.558,0.01,0,99,,1000,1000,1000,1000,0.021,0.021,0.021,0,0,0,831,0.0285,0.0053,0.0069,0.012,790.725,45.16,-180.0,0.0,0.0,2026-09-25T16:39:59.389Z,0.003,7.381,0,2026-04-01 14:44:01,17.75,506.8,0.0,0.0,0.0,0.0,2026-09-25T16:39:58.992Z,403.3,2026-09-25T16:39:59.393Z,2.9,2026-09-25T16:39:59.393Z,2.2,7,7,-998,0,0,0,2026-09-25T16:39:59.391Z,4.4,2026-09-25T16:39:59.293Z,102.6,2026-09-25T16:39:59.390Z,5.6,1790354400794933,105585,2026-09-25T16:39:58.847Z,548.2,,,,0,,,1,2026-09-25T16:39:59.392Z,3.9,16.553,0.01,99,31.0,0.0,0,1198652463,2026-09-25T16:39:59.292Z,103.7,5.254,0.019,1,2026-09-25T16:39:58.843Z,552.0,,,,,,,,,,,,,,,,,,,191,2162.35,2026-09-25T16:39:59.390Z,5.3,0,1500,0,0,2026-09-25T16:39:59.391Z,4.8,1508,1487,1528,1493,255,2026-09-25T16:39:59.292Z,103.0,0.0,0.0,0.0,0.0,0.0,2026-09-25T16:39:59.292Z,103.3,2026-09-25T16:39:58.863Z,532.9,2026-09-25T16:39:59.297Z,98.0,2026-09-25T16:39:59.297Z,98.4,2026-09-25T16:39:59.297Z,98.7,2026-09-25T16:39:58.864Z,531.0
2026-09-25T16:39:59.445Z,2026-09-25T16:40:01.552Z,0.6,12,False,POSHOLD,1,0,-1.445,1.090339,-168.032478,0.00573,0.004011,-0.009167,39.0187668,-104.8934907,2162.35,0.059,0.0,0.01,-0.01,191.97,0.0,0.017,39.0187668,-104.8934909,2166.46,0.0,12.52,31,6,0.7,1.36,0.013,0.017,0.011,0,0.098066,0.068647,-9.826263,0.0,0.0,0.0,-222,9,450,16.558,0.01,0,99,,1000,1000,1000,1000,0.021,0.021,0.021,0,0,0,831,0.0285,0.0053,0.0069,0.012,790.725,45.16,-180.0,0.0,0.0,2026-09-25T16:39:59.439Z,0.003,6.808,0,2026-04-01 14:44:01,17.75,556.8,0.0,0.0,0.0,0.0,2026-09-25T16:39:58.992Z,452.6,2026-09-25T16:39:59.441Z,3.8,2026-09-25T16:39:59.442Z,2.7,7,7,-998,0,0,0,2026-09-25T16:39:59.391Z,53.6,2026-09-25T16:39:59.293Z,151.9,2026-09-25T16:39:59.390Z,54.9,1790354400794933,105585,2026-09-25T16:39:58.847Z,597.5,,,,0,,,1,2026-09-25T16:39:59.392Z,53.1,16.553,0.01,99,31.0,0.0,0,1198652463,2026-09-25T16:39:59.292Z,152.9,5.254,0.019,1,2026-09-25T16:39:58.843Z,601.3,,,,,,,,,,,,,,,,,,,191,2162.35,2026-09-25T16:39:59.390Z,54.5,0,1500,0,0,2026-09-25T16:39:59.391Z,54.0,1508,1487,1528,1493,255,2026-09-25T16:39:59.292Z,152.2,0.0,0.0,0.0,0.0,0.0,2026-09-25T16:39:59.292Z,152.6,2026-09-25T16:39:58.863Z,582.1,2026-09-25T16:39:59.297Z,147.3,2026-09-25T16:39:59.297Z,147.6,2026-09-25T16:39:59.297Z,148.0,2026-09-25T16:39:58.864Z,580.3
2026-09-25T16:39:59.499Z,2026-09-25T16:40:01.606Z,0.65,13,False,POSHOLD,1,0,-1.444427,1.091485,-168.030187,-0.017762,0.000573,0.003438,39.0187668,-104.8934907,2162.36,0.059,0.0,0.01,-0.01,191.97,0.0,0.017,39.0187668,-104.8934909,2166.45,0.01,340.55,31,6,0.7,1.36,0.012,0.016,0.011,0,0.098066,0.068647,-9.816457,0.0,0.0,0.0,-222,9,450,16.554,0.01,0,99,,1000,1000,1000,1000,0.021,0.021,0.021,0,0,0,831,0.0285,0.0053,0.0069,0.012,790.725,45.16,-180.0,0.0,0.0,2026-09-25T16:39:59.489Z,0.003,11.09,0,2026-04-01 14:44:01,17.75,606.8,0.0,0.0,0.0,0.0,2026-09-25T16:39:58.992Z,507.0,2026-09-25T16:39:59.496Z,3.4,2026-09-25T16:39:59.497Z,2.5,8,6,-1000,0,0,0,2026-09-25T16:39:59.492Z,7.6,2026-09-25T16:39:59.494Z,4.9,2026-09-25T16:39:59.490Z,9.2,1790354400794933,105585,2026-09-25T16:39:58.847Z,651.9,,,,0,,,1,2026-09-25T16:39:59.492Z,6.9,16.554,0.01,99,30.9,0.0,0,1198652463,2026-09-25T16:39:59.493Z,6.5,5.254,0.019,1,2026-09-25T16:39:58.843Z,655.7,,,,,,,,,,,,,,,,,,,191,2162.36,2026-09-25T16:39:59.490Z,8.8,0,1500,0,0,2026-09-25T16:39:59.491Z,8.2,1508,1487,1528,1493,255,2026-09-25T16:39:59.494Z,5.4,0.0,0.0,0.0,0.0,0.0,2026-09-25T16:39:59.493Z,5.9,2026-09-25T16:39:58.863Z,636.6,2026-09-25T16:39:59.297Z,201.7,2026-09-25T16:39:59.297Z,202.1,2026-09-25T16:39:59.297Z,202.4,2026-09-25T16:39:58.864Z,634.7
2026-09-25T16:39:59.544Z,2026-09-25T16:40:01.651Z,0.7,14,False,POSHOLD,1,0,-1.442708,1.091485,-168.029614,0.011459,0.008594,-0.004584,39.0187668,-104.8934907,2162.36,0.059,0.0,0.01,-0.01,191.97,0.0,0.017,39.0187668,-104.8934909,2166.45,0.01,340.55,31,6,0.7,1.36,0.012,0.016,0.011,0,0.098066,0.068647,-9.816457,0.0,0.0,0.0,-223,9,450,16.554,0.01,0,99,,1000,1000,1000,1000,0.021,0.021,0.021,0,0,0,831,0.0285,0.0053,0.0069,0.012,790.725,45.16,-180.0,0.0,0.0,2026-09-25T16:39:59.539Z,0.003,5.596,0,2026-04-01 14:44:01,17.75,656.8,0.0,0.0,4.0,4.0,2026-09-25T16:39:59.543Z,0.2,2026-09-25T16:39:59.540Z,3.2,2026-09-25T16:39:59.541Z,2.6,8,6,-1000,0,0,0,2026-09-25T16:39:59.492Z,52.1,2026-09-25T16:39:59.494Z,49.4,2026-09-25T16:39:59.490Z,53.7,1790354400794933,105585,2026-09-25T16:39:58.847Z,696.4,,,,0,,,1,2026-09-25T16:39:59.492Z,51.4,16.554,0.01,99,30.9,0.0,0,1198652463,2026-09-25T16:39:59.493Z,51.0,5.254,0.019,1,2026-09-25T16:39:58.843Z,700.2,,,,,,,,,,,,,,,,,,,191,2162.36,2026-09-25T16:39:59.490Z,53.3,0,1500,0,0,2026-09-25T16:39:59.491Z,52.7,1508,1487,1528,1493,255,2026-09-25T16:39:59.494Z,49.9,0.0,0.0,0.0,0.0,0.0,2026-09-25T16:39:59.493Z,50.4,2026-09-25T16:39:58.863Z,681.1,2026-09-25T16:39:59.297Z,246.2,2026-09-25T16:39:59.297Z,246.6,2026-09-25T16:39:59.297Z,246.9,2026-09-25T16:39:58.864Z,679.2
2026-09-25T16:39:59.597Z,2026-09-25T16:40:01.704Z,0.75,15,False,POSHOLD,1,0,-1.441562,1.091485,-168.026749,0.010313,-0.002292,0.018335,39.0187668,-104.8934907,2162.35,0.058,0.0,0.01,-0.01,191.98,0.0,0.017,39.0187668,-104.8934909,2166.45,0.01,340.55,31,6,0.7,1.36,0.011,0.016,0.011,0,0.098066,0.05884,-9.816457,0.0,0.0,0.0,-223,9,450,16.562,0.01,0,99,,1000,1000,1000,1000,0.021,0.021,0.021,0,0,0,831,0.0285,0.0053,0.0069,0.012,790.725,45.16,-180.0,0.0,0.0,2026-09-25T16:39:59.589Z,0.004,9.03,0,2026-04-01 14:44:01,17.75,706.8,0.0,0.0,4.0,4.0,2026-09-25T16:39:59.543Z,53.5,2026-09-25T16:39:59.594Z,3.1,2026-09-25T16:39:59.594Z,2.5,7,5,-999,0,0,0,2026-09-25T16:39:59.592Z,5.2,2026-09-25T16:39:59.494Z,102.7,2026-09-25T16:39:59.590Z,7.0,1790354400794933,105585,2026-09-25T16:39:58.847Z,749.7,,,,0,,,1,2026-09-25T16:39:59.592Z,4.5,16.554,0.01,99,30.9,0.0,0,1198652463,2026-09-25T16:39:59.493Z,104.3,5.254,0.019,1,2026-09-25T16:39:58.843Z,753.5,,,,,,,,,,,,,,,,,,,191,2162.35,2026-09-25T16:39:59.590Z,6.5,0,1500,0,0,2026-09-25T16:39:59.591Z,5.9,1508,1487,1528,1493,255,2026-09-25T16:39:59.494Z,103.2,0.0,0.0,0.0,0.0,0.0,2026-09-25T16:39:59.493Z,103.7,2026-09-25T16:39:58.863Z,734.4,2026-09-25T16:39:59.297Z,299.5,2026-09-25T16:39:59.297Z,299.9,2026-09-25T16:39:59.297Z,300.2,2026-09-25T16:39:58.864Z,732.5
2026-09-25T16:39:59.644Z,2026-09-25T16:40:01.751Z,0.8,16,False,POSHOLD,1,0,-1.440989,1.091485,-168.025603,-0.004584,0.004584,-0.006303,39.0187668,-104.8934907,2162.35,0.058,0.0,0.01,-0.01,191.98,0.0,0.017,39.0187668,-104.8934909,2166.45,0.01,340.55,31,6,0.7,1.36,0.011,0.016,0.011,0,0.098066,0.05884,-9.816457,0.0,0.0,0.0,-222,9,451,16.562,0.01,0,99,,1000,1000,1000,1000,0.021,0.021,0.021,0,0,0,831,0.0285,0.0053,0.0069,0.012,790.725,45.16,-180.0,0.0,0.0,2026-09-25T16:39:59.639Z,0.003,5.711,0,2026-04-01 14:44:01,17.75,756.8,0.0,16.0,89.0,3.0,2026-09-25T16:39:59.643Z,1.0,2026-09-25T16:39:59.640Z,3.3,2026-09-25T16:39:59.641Z,2.6,7,5,-999,0,0,0,2026-09-25T16:39:59.592Z,52.0,2026-09-25T16:39:59.494Z,149.6,2026-09-25T16:39:59.590Z,53.9,1790354400794933,105585,2026-09-25T16:39:58.847Z,796.6,,,,0,,,1,2026-09-25T16:39:59.592Z,51.3,16.554,0.01,99,30.9,0.0,0,1198652463,2026-09-25T16:39:59.493Z,151.1,5.254,0.019,1,2026-09-25T16:39:58.843Z,800.4,,,,,,,,,,,,,,,,,,,191,2162.35,2026-09-25T16:39:59.590Z,53.4,0,1500,0,0,2026-09-25T16:39:59.591Z,52.7,1508,1487,1528,1493,255,2026-09-25T16:39:59.494Z,150.0,0.0,0.0,0.0,0.0,0.0,2026-09-25T16:39:59.493Z,150.6,2026-09-25T16:39:58.863Z,781.2,2026-09-25T16:39:59.297Z,346.4,2026-09-25T16:39:59.297Z,346.7,2026-09-25T16:39:59.297Z,347.1,2026-09-25T16:39:58.864Z,779.4
2026-09-25T16:39:59.698Z,2026-09-25T16:40:01.805Z,0.85,17,False,POSHOLD,1,0,-1.439843,1.092631,-168.024457,0.008594,0.017189,-0.004584,39.0187668,-104.8934907,2162.35,0.058,0.0,0.01,-0.01,191.98,0.0,0.017,39.0187668,-104.8934909,2166.45,0.0,20.55,31,6,0.7,1.36,0.01,0.015,0.01,0,0.098066,0.05884,-9.826263,0.0,0.0,0.0,-222,9,451,16.563,0.01,0,99,,1000,1000,1000,1000,0.021,0.021,0.021,0,0,0,831,0.0285,0.0053,0.0069,0.012,790.725,45.16,-180.0,0.0,0.0,2026-09-25T16:39:59.689Z,0.003,10.014,0,2026-04-01 14:44:01,17.75,806.8,0.0,16.0,89.0,3.0,2026-09-25T16:39:59.643Z,55.3,2026-09-25T16:39:59.694Z,4.2,2026-09-25T16:39:59.695Z,3.5,8,6,-999,0,0,0,2026-09-25T16:39:59.691Z,7.0,2026-09-25T16:39:59.693Z,5.2,2026-09-25T16:39:59.690Z,8.3,1790354401804872,106595,2026-09-25T16:39:59.698Z,0.6,,,,0,,,1,2026-09-25T16:39:59.692Z,6.5,16.563,0.01,99,31.4,0.0,0,1198652463,2026-09-25T16:39:59.692Z,6.2,5.262,0.016,1,2026-09-25T16:39:59.697Z,1.2,,,,,,,,,,,,,,,,,,,191,2162.35,2026-09-25T16:39:59.690Z,7.9,0,1500,0,0,2026-09-25T16:39:59.691Z,7.4,1508,1487,1527,1494,255,2026-09-25T16:39:59.693Z,5.5,0.0,0.0,0.0,0.0,0.0,2026-09-25T16:39:59.692Z,5.9,2026-09-25T16:39:59.697Z,0.9,2026-09-25T16:39:59.297Z,400.7,2026-09-25T16:39:59.297Z,401.0,2026-09-25T16:39:59.297Z,401.3,2026-09-25T16:39:59.698Z,0.2
2026-09-25T16:39:59.743Z,2026-09-25T16:40:01.850Z,0.9,18,False,POSHOLD,1,0,-1.438124,1.093203,-168.023884,0.054431,0.013178,-0.007448,39.0187668,-104.8934907,2162.35,0.058,0.0,0.01,-0.01,191.98,0.0,0.017,39.0187668,-104.8934909,2166.45,0.0,20.55,31,6,0.7,1.36,0.01,0.015,0.01,0,0.098066,0.05884,-9.826263,0.0,0.0,0.0,-223,9,451,16.563,0.01,0,99,,1000,1000,1000,1000,0.021,0.021,0.021,0,0,0,831,0.0285,0.0053,0.0069,0.012,790.725,45.16,-180.0,0.0,0.0,2026-09-25T16:39:59.739Z,0.002,5.158,0,2026-04-01 14:44:01,17.75,856.8,0.0,16.0,89.0,3.0,2026-09-25T16:39:59.643Z,100.4,2026-09-25T16:39:59.740Z,2.9,2026-09-25T16:39:59.741Z,2.3,8,6,-999,0,0,0,2026-09-25T16:39:59.691Z,52.2,2026-09-25T16:39:59.693Z,50.3,2026-09-25T16:39:59.690Z,53.4,1790354401804872,106595,2026-09-25T16:39:59.698Z,45.7,,,,0,,,1,2026-09-25T16:39:59.692Z,51.7,16.563,0.01,99,31.4,0.0,0,1198652463,2026-09-25T16:39:59.692Z,51.4,5.262,0.016,1,2026-09-25T16:39:59.697Z,46.4,,,,,,,,,,,,,,,,,,,191,2162.35,2026-09-25T16:39:59.690Z,53.1,0,1500,0,0,2026-09-25T16:39:59.691Z,52.6,1508,1487,1527,1494,255,2026-09-25T16:39:59.693Z,50.7,0.0,0.0,0.0,0.0,0.0,2026-09-25T16:39:59.692Z,51.0,2026-09-25T16:39:59.697Z,46.0,2026-09-25T16:39:59.297Z,445.8,2026-09-25T16:39:59.297Z,446.1,2026-09-25T16:39:59.297Z,446.5,2026-09-25T16:39:59.698Z,45.4
2026-09-25T16:39:59.796Z,2026-09-25T16:40:01.903Z,0.95,19,False,POSHOLD,1,0,-1.438124,1.094349,-168.022165,-0.010313,0.02521,0.014324,39.0187668,-104.8934907,2162.35,0.058,0.0,0.0,-0.01,191.98,0.0,0.017,39.0187668,-104.8934909,2166.45,0.0,20.55,31,6,0.7,1.36,0.009,0.014,0.011,0,0.098066,0.05884,-9.816457,0.0,0.0,0.0,-223,9,451,16.557,0.01,0,99,,1000,1000,1000,1000,0.023,0.022,0.024,0,0,0,831,0.0056,0.0045,0.0029,0.0026,790.719,45.15,-180.0,0.0,0.0,2026-09-25T16:39:59.789Z,0.002,8.397,0,2026-04-01 14:44:01,17.75,906.8,0.0,16.0,89.0,3.0,2026-09-25T16:39:59.643Z,153.6,2026-09-25T16:39:59.793Z,3.9,2026-09-25T16:39:59.793Z,3.2,7,6,-999,0,0,0,2026-09-25T16:39:59.791Z,5.3,2026-09-25T16:39:59.693Z,103.5,2026-09-25T16:39:59.790Z,6.6,1790354401804872,106595,2026-09-25T16:39:59.698Z,98.9,,,,0,,,1,2026-09-25T16:39:59.792Z,4.8,16.563,0.01,99,31.4,0.0,0,1198652463,2026-09-25T16:39:59.692Z,104.5,5.262,0.016,1,2026-09-25T16:39:59.697Z,99.5,,,,,,,,,,,,,,,,,,,191,2162.35,2026-09-25T16:39:59.790Z,6.2,0,1500,0,0,2026-09-25T16:39:59.791Z,5.7,1508,1487,1527,1494,255,2026-09-25T16:39:59.693Z,103.8,0.0,0.0,0.0,0.0,0.0,2026-09-25T16:39:59.692Z,104.2,2026-09-25T16:39:59.697Z,99.2,2026-09-25T16:39:59.796Z,0.2,2026-09-25T16:39:59.796Z,0.6,2026-09-25T16:39:59.795Z,0.9,2026-09-25T16:39:59.698Z,98.5
2026-09-25T16:39:59.843Z,2026-09-25T16:40:01.950Z,1.0,20,False,POSHOLD,1,0,-1.436978,1.094349,-168.021592,-0.037815,-0.012032,-0.025783,39.0187668,-104.8934907,2162.35,0.058,0.0,0.0,-0.01,191.98,0.0,0.017,39.0187668,-104.8934909,2166.45,0.0,20.55,31,6,0.7,1.36,0.009,0.014,0.011,0,0.098066,0.068647,-9.816457,0.0,0.0,0.0,-222,9,451,16.557,0.01,0,99,,1000,1000,1000,1000,0.023,0.022,0.024,0,0,0,831,0.0056,0.0045,0.0029,0.0026,790.719,45.15,-180.0,0.0,0.0,2026-09-25T16:39:59.839Z,0.002,5.154,0,2026-04-01 14:44:01,17.75,956.8,0.0,16.0,89.0,3.0,2026-09-25T16:39:59.643Z,200.4,2026-09-25T16:39:59.840Z,2.9,2026-09-25T16:39:59.841Z,2.3,7,6,-999,0,0,0,2026-09-25T16:39:59.791Z,52.1,2026-09-25T16:39:59.693Z,150.3,2026-09-25T16:39:59.790Z,53.4,1790354401804872,106595,2026-09-25T16:39:59.698Z,145.7,,,,0,,,1,2026-09-25T16:39:59.792Z,51.6,16.563,0.01,99,31.4,0.0,0,1198652463,2026-09-25T16:39:59.692Z,151.3,5.262,0.016,1,2026-09-25T16:39:59.697Z,146.4,,,,,,,,,,,,,,,,,,,191,2162.35,2026-09-25T16:39:59.790Z,53.1,0,1500,0,0,2026-09-25T16:39:59.791Z,52.5,1508,1487,1527,1494,255,2026-09-25T16:39:59.693Z,150.7,0.0,0.0,0.0,0.0,0.0,2026-09-25T16:39:59.692Z,151.0,2026-09-25T16:39:59.697Z,146.0,2026-09-25T16:39:59.796Z,47.1,2026-09-25T16:39:59.796Z,47.4,2026-09-25T16:39:59.795Z,47.7,2026-09-25T16:39:59.698Z,145.4
2026-09-25T16:39:59.899Z,2026-09-25T16:40:02.006Z,1.05,21,False,POSHOLD,1,0,-1.436405,1.095495,-168.018728,-0.000573,0.037242,0.012032,39.0187668,-104.8934907,2162.36,0.06,0.0,0.0,-0.01,191.99,0.0,0.017,39.0187668,-104.8934909,2166.45,0.0,243.43,31,6,0.7,1.36,0.009,0.014,0.011,0,0.098066,0.068647,-9.80665,0.0,0.0,0.0,-222,9,451,16.557,0.01,0,99,,1000,1000,1000,1000,0.023,0.022,0.024,0,0,0,831,0.0056,0.0045,0.0029,0.0026,790.719,45.15,-180.0,0.0,0.0,2026-09-25T16:39:59.889Z,0.002,11.399,0,2026-04-01 14:44:02,17.75,-10.1,0.0,16.0,89.0,3.0,2026-09-25T16:39:59.643Z,256.6,2026-09-25T16:39:59.894Z,5.7,2026-09-25T16:39:59.894Z,5.1,7,6,-999,0,0,0,2026-09-25T16:39:59.891Z,8.5,2026-09-25T16:39:59.893Z,6.7,2026-09-25T16:39:59.890Z,9.7,1790354401804872,106595,2026-09-25T16:39:59.698Z,201.9,,,,0,,,1,2026-09-25T16:39:59.891Z,8.0,16.557,0.01,99,31.1,0.0,0,1198652463,2026-09-25T16:39:59.892Z,7.7,5.262,0.016,1,2026-09-25T16:39:59.697Z,202.6,,,,,,,,,,,,,,,,,,,191,2162.36,2026-09-25T16:39:59.890Z,9.4,0,1500,0,0,2026-09-25T16:39:59.890Z,8.9,1508,1487,1528,1493,255,2026-09-25T16:39:59.892Z,7.0,0.0,0.0,0.0,0.0,0.0,2026-09-25T16:39:59.892Z,7.4,2026-09-25T16:39:59.697Z,202.2,2026-09-25T16:39:59.796Z,103.3,2026-09-25T16:39:59.796Z,103.6,2026-09-25T16:39:59.795Z,103.9,2026-09-25T16:39:59.698Z,201.6
2026-09-25T16:39:59.943Z,2026-09-25T16:40:02.050Z,1.1,22,False,POSHOLD,1,0,-1.435259,1.096068,-168.016436,0.001719,0.012032,-0.012605,39.0187668,-104.8934907,2162.36,0.06,0.0,0.0,-0.01,191.99,0.0,0.017,39.0187668,-104.8934909,2166.45,0.0,243.43,31,6,0.7,1.36,0.009,0.014,0.011,0,0.098066,0.05884,-9.816457,0.0,0.0,0.0,-223,9,451,16.557,0.01,0,99,,1000,1000,1000,1000,0.023,0.022,0.024,0,0,0,831,0.0056,0.0045,0.0029,0.0026,790.719,45.15,-180.0,0.0,0.0,2026-09-25T16:39:59.939Z,0.002,5.182,0,2026-04-01 14:44:02,17.75,39.9,0.0,16.0,89.0,3.0,2026-09-25T16:39:59.643Z,300.4,2026-09-25T16:39:59.940Z,2.9,2026-09-25T16:39:59.941Z,2.3,7,6,-999,0,0,0,2026-09-25T16:39:59.891Z,52.3,2026-09-25T16:39:59.893Z,50.5,2026-09-25T16:39:59.890Z,53.6,1790354401804872,106595,2026-09-25T16:39:59.698Z,245.7,,,,0,,,1,2026-09-25T16:39:59.891Z,51.9,16.557,0.01,99,31.1,0.0,0,1198652463,2026-09-25T16:39:59.892Z,51.5,5.262,0.016,1,2026-09-25T16:39:59.697Z,246.4,,,,,,,,,,,,,,,,,,,191,2162.36,2026-09-25T16:39:59.890Z,53.2,0,1500,0,0,2026-09-25T16:39:59.890Z,52.7,1508,1487,1528,1493,255,2026-09-25T16:39:59.892Z,50.9,0.0,0.0,0.0,0.0,0.0,2026-09-25T16:39:59.892Z,51.2,2026-09-25T16:39:59.697Z,246.0,2026-09-25T16:39:59.796Z,147.1,2026-09-25T16:39:59.796Z,147.4,2026-09-25T16:39:59.795Z,147.7,2026-09-25T16:39:59.698Z,245.4
2026-09-25T16:39:59.995Z,2026-09-25T16:40:02.102Z,1.15,23,False,POSHOLD,1,0,-1.434113,1.096068,-168.015863,0.014897,-0.00974,-0.000573,39.0187668,-104.8934907,2162.36,0.062,0.0,0.0,-0.01,191.99,0.0,0.017,39.0187668,-104.8934909,2166.45,0.0,243.43,31,6,0.7,1.36,0.008,0.014,0.011,0,0.098066,0.068647,-9.816457,0.0,0.0,0.0,-223,9,451,16.556,0.01,0,99,,1000,1000,1000,1000,0.023,0.022,0.024,0,0,0,831,0.0056,0.0045,0.0029,0.0026,790.719,45.15,-180.0,0.0,0.0,2026-09-25T16:39:59.989Z,0.002,7.194,0,2026-04-01 14:44:02,17.75,89.9,0.0,16.0,89.0,3.0,2026-09-25T16:39:59.643Z,352.4,2026-09-25T16:39:59.992Z,2.9,2026-09-25T16:39:59.993Z,2.3,8,6,-998,0,0,0,2026-09-25T16:39:59.991Z,4.3,2026-09-25T16:39:59.893Z,102.5,2026-09-25T16:39:59.990Z,5.6,1790354401804872,106595,2026-09-25T16:39:59.698Z,297.7,,,,0,,,1,2026-09-25T16:39:59.991Z,3.8,16.557,0.01,99,31.1,0.0,0,1198652463,2026-09-25T16:39:59.892Z,103.5,5.262,0.016,1,2026-09-25T16:39:59.697Z,298.4,,,,,,,,,,,,,,,,,,,191,2162.36,2026-09-25T16:39:59.990Z,5.2,0,1500,0,0,2026-09-25T16:39:59.990Z,4.7,1508,1487,1528,1493,255,2026-09-25T16:39:59.892Z,102.9,0.0,0.0,0.0,0.0,0.0,2026-09-25T16:39:59.892Z,103.2,2026-09-25T16:39:59.697Z,298.0,2026-09-25T16:39:59.796Z,199.1,2026-09-25T16:39:59.796Z,199.4,2026-09-25T16:39:59.795Z,199.7,2026-09-25T16:39:59.698Z,297.4
2026-09-25T16:40:00.044Z,2026-09-25T16:40:02.151Z,1.2,24,False,POSHOLD,1,0,-1.432967,1.095495,-168.014717,0.010313,-0.051566,-0.024064,39.0187668,-104.8934907,2162.36,0.062,0.0,0.0,-0.01,191.99,0.0,0.017,39.0187668,-104.8934909,2166.45,0.0,243.43,31,6,0.7,1.36,0.008,0.014,0.011,0,0.098066,0.068647,-9.80665,0.0,0.0,0.0,-221,9,450,16.556,0.01,0,99,,1000,1000,1000,1000,0.023,0.022,0.024,0,0,0,831,0.0056,0.0045,0.0029,0.0026,790.719,45.15,-180.0,0.0,0.0,2026-09-25T16:40:00.039Z,0.002,5.805,0,2026-04-01 14:44:02,17.75,139.9,0.0,0.0,0.0,0.0,2026-09-25T16:40:00.044Z,0.2,2026-09-25T16:40:00.040Z,3.5,2026-09-25T16:40:00.041Z,2.9,8,6,-998,0,0,0,2026-09-25T16:39:59.991Z,52.9,2026-09-25T16:39:59.893Z,151.1,2026-09-25T16:39:59.990Z,54.2,1790354401804872,106595,2026-09-25T16:39:59.698Z,346.3,,,,0,,,1,2026-09-25T16:39:59.991Z,52.4,16.557,0.01,99,31.1,0.0,0,1198652463,2026-09-25T16:39:59.892Z,152.1,5.262,0.016,1,2026-09-25T16:39:59.697Z,347.0,,,,,,,,,,,,,,,,,,,191,2162.36,2026-09-25T16:39:59.990Z,53.8,0,1500,0,0,2026-09-25T16:39:59.990Z,53.3,1508,1487,1528,1493,255,2026-09-25T16:39:59.892Z,151.5,0.0,0.0,0.0,0.0,0.0,2026-09-25T16:39:59.892Z,151.8,2026-09-25T16:39:59.697Z,346.6,2026-09-25T16:39:59.796Z,247.7,2026-09-25T16:39:59.796Z,248.0,2026-09-25T16:39:59.795Z,248.4,2026-09-25T16:39:59.698Z,346.0
2026-09-25T16:40:00.097Z,2026-09-25T16:40:02.204Z,1.25,25,False,POSHOLD,1,0,-1.432394,1.094922,-168.014144,0.012605,-0.007448,0.033805,39.0187668,-104.8934907,2162.36,0.063,0.0,0.0,-0.01,191.99,0.0,0.017,39.0187668,-104.8934909,2166.46,0.03,107.35,31,6,0.7,1.36,0.008,0.014,0.011,0,0.08826,0.068647,-9.826263,0.0,0.0,0.0,-221,9,450,16.559,0.01,0,99,,1000,1000,1000,1000,0.023,0.022,0.024,0,0,0,831,0.0056,0.0045,0.0029,0.0026,790.719,45.15,-180.0,0.0,0.0,2026-09-25T16:40:00.089Z,0.002,8.993,0,2026-04-01 14:44:02,17.75,189.9,0.0,0.0,0.0,0.0,2026-09-25T16:40:00.044Z,53.4,2026-09-25T16:40:00.094Z,2.9,2026-09-25T16:40:00.095Z,2.2,7,6,-999,0,0,0,2026-09-25T16:40:00.091Z,6.1,2026-09-25T16:40:00.093Z,4.3,2026-09-25T16:40:00.090Z,7.3,1790354401804872,106595,2026-09-25T16:39:59.698Z,399.5,,,,0,,,1,2026-09-25T16:40:00.091Z,5.6,16.559,0.01,99,32.2,0.0,0,1198652463,2026-09-25T16:40:00.092Z,5.3,5.262,0.016,1,2026-09-25T16:39:59.697Z,400.2,,,,,,,,,,,,,,,,,,,191,2162.36,2026-09-25T16:40:00.090Z,7.0,0,1500,0,0,2026-09-25T16:40:00.090Z,6.5,1508,1487,1528,1494,255,2026-09-25T16:40:00.092Z,4.6,0.0,0.0,0.0,0.0,0.0,2026-09-25T16:40:00.092Z,5.0,2026-09-25T16:39:59.697Z,399.8,2026-09-25T16:39:59.796Z,300.8,2026-09-25T16:39:59.796Z,301.2,2026-09-25T16:39:59.795Z,301.5,2026-09-25T16:39:59.698Z,399.1
2026-09-25T16:40:00.144Z,2026-09-25T16:40:02.251Z,1.3,26,False,POSHOLD,1,0,-1.431822,1.096068,-168.01529,0.001719,0.00573,-0.01547,39.0187668,-104.8934907,2162.36,0.063,0.0,0.0,-0.01,191.99,0.0,0.017,39.0187668,-104.8934909,2166.46,0.03,107.35,31,6,0.7,1.36,0.008,0.014,0.011,0,0.098066,0.05884,-9.816457,0.0,0.0,0.0,-222,9,450,16.559,0.01,0,99,,1000,1000,1000,1000,0.023,0.022,0.024,0,0,0,831,0.0056,0.0045,0.0029,0.0026,790.719,45.15,-180.0,0.0,0.0,2026-09-25T16:40:00.139Z,0.002,5.617,0,2026-04-01 14:44:02,17.75,239.9,0.0,0.0,0.0,0.0,2026-09-25T16:40:00.044Z,100.1,2026-09-25T16:40:00.141Z,2.9,2026-09-25T16:40:00.141Z,2.2,7,6,-999,0,0,0,2026-09-25T16:40:00.091Z,52.8,2026-09-25T16:40:00.093Z,50.9,2026-09-25T16:40:00.090Z,54.0,1790354401804872,106595,2026-09-25T16:39:59.698Z,446.1,,,,0,,,1,2026-09-25T16:40:00.091Z,52.3,16.559,0.01,99,32.2,0.0,0,1198652463,2026-09-25T16:40:00.092Z,52.0,5.262,0.016,1,2026-09-25T16:39:59.697Z,446.8,,,,,,,,,,,,,,,,,,,191,2162.36,2026-09-25T16:40:00.090Z,53.7,0,1500,0,0,2026-09-25T16:40:00.090Z,53.2,1508,1487,1528,1494,255,2026-09-25T16:40:00.092Z,51.3,0.0,0.0,0.0,0.0,0.0,2026-09-25T16:40:00.092Z,51.6,2026-09-25T16:39:59.697Z,446.5,2026-09-25T16:39:59.796Z,347.5,2026-09-25T16:39:59.796Z,347.8,2026-09-25T16:39:59.795Z,348.2,2026-09-25T16:39:59.698Z,445.8
2026-09-25T16:40:00.195Z,2026-09-25T16:40:02.302Z,1.35,27,False,POSHOLD,1,0,-1.431822,1.094922,-168.016436,-0.012605,-0.0,-0.001146,39.0187668,-104.8934907,2162.36,0.065,0.0,0.0,-0.01,191.99,0.0,0.017,39.0187668,-104.8934909,2166.46,0.03,107.35,31,6,0.7,1.36,0.007,0.014,0.011,0,0.098066,0.068647,-9.826263,0.0,0.0,0.0,-222,9,450,16.554,0.01,0,99,,1000,1000,1000,1000,0.023,0.022,0.024,0,0,0,831,0.0056,0.0045,0.0029,0.0026,790.719,45.15,-180.0,0.0,0.0,2026-09-25T16:40:00.189Z,0.002,7.203,0,2026-04-01 14:44:02,17.75,289.9,0.0,0.0,0.0,0.0,2026-09-25T16:40:00.044Z,151.6,2026-09-25T16:40:00.192Z,2.9,2026-09-25T16:40:00.193Z,2.3,7,6,-1000,0,0,0,2026-09-25T16:40:00.191Z,4.3,2026-09-25T16:40:00.093Z,102.5,2026-09-25T16:40:00.190Z,5.6,1790354401804872,106595,2026-09-25T16:39:59.698Z,497.7,,,,0,,,1,2026-09-25T16:40:00.191Z,3.8,16.559,0.01,99,32.2,0.0,0,1198652463,2026-09-25T16:40:00.092Z,103.5,5.262,0.016,1,2026-09-25T16:39:59.697Z,498.4,,,,,,,,,,,,,,,,,,,191,2162.36,2026-09-25T16:40:00.190Z,5.2,0,1500,0,0,2026-09-25T16:40:00.190Z,4.7,1508,1487,1528,1494,255,2026-09-25T16:40:00.092Z,102.9,0.0,0.0,0.0,0.0,0.0,2026-09-25T16:40:00.092Z,103.2,2026-09-25T16:39:59.697Z,498.0,2026-09-25T16:39:59.796Z,399.1,2026-09-25T16:39:59.796Z,399.4,2026-09-25T16:39:59.795Z,399.7,2026-09-25T16:39:59.698Z,497.4
2026-09-25T16:40:00.244Z,2026-09-25T16:40:02.351Z,1.4,28,False,POSHOLD,1,0,-1.430103,1.094922,-168.017582,0.010886,0.018908,0.014324,39.0187668,-104.8934907,2162.36,0.065,0.0,0.0,-0.01,191.99,0.0,0.017,39.0187668,-104.8934909,2166.46,0.03,107.35,31,6,0.7,1.36,0.007,0.014,0.011,0,0.098066,0.068647,-9.816457,0.0,0.0,0.0,-222,9,450,16.554,0.01,0,99,,1000,1000,1000,1000,0.023,0.022,0.024,0,0,0,831,0.0056,0.0045,0.0029,0.0026,790.719,45.15,-180.0,0.0,0.0,2026-09-25T16:40:00.239Z,0.002,5.778,0,2026-04-01 14:44:02,17.75,339.9,0.0,0.0,0.0,0.0,2026-09-25T16:40:00.044Z,200.2,2026-09-25T16:40:00.240Z,3.5,2026-09-25T16:40:00.241Z,2.9,7,6,-1000,0,0,0,2026-09-25T16:40:00.191Z,52.9,2026-09-25T16:40:00.093Z,151.1,2026-09-25T16:40:00.190Z,54.1,1790354401804872,106595,2026-09-25T16:39:59.698Z,546.3,,,,0,,,1,2026-09-25T16:40:00.191Z,52.4,16.559,0.01,99,32.2,0.0,0,1198652463,2026-09-25T16:40:00.092Z,152.1,5.262,0.016,1,2026-09-25T16:39:59.697Z,547.0,,,,,,,,,,,,,,,,,,,191,2162.36,2026-09-25T16:40:00.190Z,53.8,0,1500,0,0,2026-09-25T16:40:00.190Z,53.3,1508,1487,1528,1494,255,2026-09-25T16:40:00.092Z,151.4,0.0,0.0,0.0,0.0,0.0,2026-09-25T16:40:00.092Z,151.8,2026-09-25T16:39:59.697Z,546.6,2026-09-25T16:39:59.796Z,447.7,2026-09-25T16:39:59.796Z,448.0,2026-09-25T16:39:59.795Z,448.3,2026-09-25T16:39:59.698Z,546.0
2026-09-25T16:40:00.298Z,2026-09-25T16:40:02.405Z,1.45,29,False,POSHOLD,1,0,-1.428957,1.095495,-168.018155,0.017762,0.005157,-0.000573,39.0187668,-104.8934907,2162.36,0.066,0.0,0.0,-0.01,191.99,0.0,0.017,39.0187668,-104.8934909,2166.45,0.0,285.94,31,6,0.7,1.36,0.007,0.013,0.011,0,0.098066,0.068647,-9.826263,0.0,0.0,0.0,-222,9,450,16.555,0.01,0,99,,1000,1000,1000,1000,0.021,0.022,0.024,0,0,0,831,0.0086,0.0049,0.008,0.0118,790.68,45.14,-180.0,0.0,0.0,2026-09-25T16:40:00.289Z,0.002,10.459,0,2026-04-01 14:44:02,17.75,389.9,0.0,0.0,0.0,0.0,2026-09-25T16:40:00.044Z,254.9,2026-09-25T16:40:00.294Z,4.3,2026-09-25T16:40:00.295Z,3.6,7,6,-998,0,0,0,2026-09-25T16:40:00.291Z,7.1,2026-09-25T16:40:00.293Z,5.2,2026-09-25T16:40:00.290Z,8.4,1790354401804872,106595,2026-09-25T16:39:59.698Z,601.0,,,,0,,,1,2026-09-25T16:40:00.292Z,6.6,16.555,0.01,99,31.6,0.0,0,1198652463,2026-09-25T16:40:00.292Z,6.3,5.262,0.016,1,2026-09-25T16:39:59.697Z,601.7,,,,,,,,,,,,,,,,,,,191,2162.36,2026-09-25T16:40:00.290Z,8.1,0,1500,0,0,2026-09-25T16:40:00.291Z,7.6,1508,1487,1528,1493,255,2026-09-25T16:40:00.293Z,5.6,0.0,0.0,0.0,0.0,0.0,2026-09-25T16:40:00.293Z,6.0,2026-09-25T16:39:59.697Z,601.3,2026-09-25T16:40:00.298Z,0.3,2026-09-25T16:40:00.298Z,0.6,2026-09-25T16:40:00.298Z,0.9,2026-09-25T16:39:59.698Z,600.7
2026-09-25T16:40:00.343Z,2026-09-25T16:40:02.450Z,1.5,30,False,POSHOLD,1,0,-1.428957,1.095495,-168.018155,0.006303,0.016043,-0.022345,39.0187668,-104.8934907,2162.36,0.066,0.0,0.0,-0.01,191.99,0.0,0.017,39.0187668,-104.8934909,2166.45,0.0,285.94,31,6,0.7,1.36,0.007,0.013,0.011,0,0.098066,0.049033,-9.816457,0.0,0.0,0.0,-222,9,450,16.555,0.01,0,99,,1000,1000,1000,1000,0.021,0.022,0.024,0,0,0,831,0.0086,0.0049,0.008,0.0118,790.68,45.14,-180.0,0.0,0.0,2026-09-25T16:40:00.339Z,0.002,5.153,0,2026-04-01 14:44:02,17.75,439.9,0.0,0.0,0.0,0.0,2026-09-25T16:40:00.044Z,299.6,2026-09-25T16:40:00.340Z,2.9,2026-09-25T16:40:00.341Z,2.3,7,6,-998,0,0,0,2026-09-25T16:40:00.291Z,51.8,2026-09-25T16:40:00.293Z,49.9,2026-09-25T16:40:00.290Z,53.1,1790354401804872,106595,2026-09-25T16:39:59.698Z,645.7,,,,0,,,1,2026-09-25T16:40:00.292Z,51.3,16.555,0.01,99,31.6,0.0,0,1198652463,2026-09-25T16:40:00.292Z,51.0,5.262,0.016,1,2026-09-25T16:39:59.697Z,646.4,,,,,,,,,,,,,,,,,,,191,2162.36,2026-09-25T16:40:00.290Z,52.8,0,1500,0,0,2026-09-25T16:40:00.291Z,52.3,1508,1487,1528,1493,255,2026-09-25T16:40:00.293Z,50.3,0.0,0.0,0.0,0.0,0.0,2026-09-25T16:40:00.293Z,50.7,2026-09-25T16:39:59.697Z,646.0,2026-09-25T16:40:00.298Z,45.0,2026-09-25T16:40:00.298Z,45.3,2026-09-25T16:40:00.298Z,45.6,2026-09-25T16:39:59.698Z,645.4
2026-09-25T16:40:00.395Z,2026-09-25T16:40:02.502Z,1.55,31,False,POSHOLD,1,0,-1.427238,1.096068,-168.018155,0.033232,-0.000573,-0.030367,39.0187668,-104.8934907,2162.36,0.066,0.0,0.0,-0.01,191.99,0.0,0.017,39.0187668,-104.8934909,2166.45,0.0,285.94,31,6,0.7,1.36,0.006,0.012,0.011,0,0.098066,0.05884,-9.826263,0.0,0.0,0.0,-222,9,450,16.561,0.01,0,99,,1000,1000,1000,1000,0.021,0.022,0.024,0,0,0,831,0.0086,0.0049,0.008,0.0118,790.68,45.14,-180.0,0.0,0.0,2026-09-25T16:40:00.389Z,0.002,7.222,0,2026-04-01 14:44:02,17.75,489.9,0.0,0.0,0.0,0.0,2026-09-25T16:40:00.044Z,351.7,2026-09-25T16:40:00.392Z,2.9,2026-09-25T16:40:00.393Z,2.3,8,7,-999,0,0,0,2026-09-25T16:40:00.391Z,4.3,2026-09-25T16:40:00.293Z,102.0,2026-09-25T16:40:00.390Z,5.6,1790354401804872,106595,2026-09-25T16:39:59.698Z,697.7,,,,0,,,1,2026-09-25T16:40:00.391Z,3.8,16.555,0.01,99,31.6,0.0,0,1198652463,2026-09-25T16:40:00.292Z,103.1,5.262,0.016,1,2026-09-25T16:39:59.697Z,698.4,,,,,,,,,,,,,,,,,,,191,2162.36,2026-09-25T16:40:00.390Z,5.2,0,1500,0,0,2026-09-25T16:40:00.391Z,4.7,1508,1487,1528,1493,255,2026-09-25T16:40:00.293Z,102.4,0.0,0.0,0.0,0.0,0.0,2026-09-25T16:40:00.293Z,102.7,2026-09-25T16:39:59.697Z,698.1,2026-09-25T16:40:00.298Z,97.0,2026-09-25T16:40:00.298Z,97.3,2026-09-25T16:40:00.298Z,97.7,2026-09-25T16:39:59.698Z,697.4
2026-09-25T16:40:00.443Z,2026-09-25T16:40:02.550Z,1.6,32,False,POSHOLD,1,0,-1.425519,1.095495,-168.018155,-0.0,0.01547,-0.008594,39.0187668,-104.8934907,2162.36,0.066,0.0,0.0,-0.01,191.99,0.0,0.017,39.0187668,-104.8934909,2166.45,0.0,285.94,31,6,0.7,1.36,0.006,0.012,0.011,0,0.098066,0.05884,-9.816457,0.0,0.0,0.0,-221,9,450,16.561,0.01,0,99,,1000,1000,1000,1000,0.021,0.022,0.024,0,0,0,831,0.0086,0.0049,0.008,0.0118,790.68,45.14,-180.0,0.0,0.0,2026-09-25T16:40:00.439Z,0.002,5.134,0,2026-04-01 14:44:02,17.75,539.9,0.0,0.0,0.0,0.0,2026-09-25T16:40:00.044Z,399.6,2026-09-25T16:40:00.440Z,2.9,2026-09-25T16:40:00.441Z,2.3,8,7,-999,0,0,0,2026-09-25T16:40:00.391Z,52.2,2026-09-25T16:40:00.293Z,149.9,2026-09-25T16:40:00.390Z,53.5,1790354401804872,106595,2026-09-25T16:39:59.698Z,745.7,,,,0,,,1,2026-09-25T16:40:00.391Z,51.8,16.555,0.01,99,31.6,0.0,0,1198652463,2026-09-25T16:40:00.292Z,151.0,5.262,0.016,1,2026-09-25T16:39:59.697Z,746.4,,,,,,,,,,,,,,,,,,,191,2162.36,2026-09-25T16:40:00.390Z,53.1,0,1500,0,0,2026-09-25T16:40:00.391Z,52.7,1508,1487,1528,1493,255,2026-09-25T16:40:00.293Z,150.3,0.0,0.0,0.0,0.0,0.0,2026-09-25T16:40:00.293Z,150.7,2026-09-25T16:39:59.697Z,746.0,2026-09-25T16:40:00.298Z,144.9,2026-09-25T16:40:00.298Z,145.3,2026-09-25T16:40:00.298Z,145.6,2026-09-25T16:39:59.698Z,745.4
2026-09-25T16:40:00.497Z,2026-09-25T16:40:02.604Z,1.65,33,False,POSHOLD,1,0,-1.424373,1.094922,-168.017009,0.039534,-0.002865,0.00573,39.0187668,-104.8934907,2162.36,0.067,0.0,0.0,-0.01,191.99,0.0,0.017,39.0187668,-104.8934909,2166.45,0.0,90.0,31,6,0.7,1.36,0.005,0.012,0.011,0,0.098066,0.068647,-9.816457,0.0,0.0,0.0,-221,9,450,16.55,0.01,0,99,,1000,1000,1000,1000,0.021,0.022,0.024,0,0,0,831,0.0086,0.0049,0.008,0.0118,790.68,45.14,-180.0,0.0,0.0,2026-09-25T16:40:00.489Z,0.002,8.67,0,2026-04-01 14:44:02,17.75,589.9,0.0,0.0,0.0,0.0,2026-09-25T16:40:00.044Z,453.0,2026-09-25T16:40:00.494Z,2.8,2026-09-25T16:40:00.494Z,2.2,8,5,-999,0,0,0,2026-09-25T16:40:00.491Z,5.7,2026-09-25T16:40:00.493Z,3.9,2026-09-25T16:40:00.490Z,6.9,1790354401804872,106595,2026-09-25T16:39:59.698Z,799.1,,,,0,,,1,2026-09-25T16:40:00.491Z,5.2,16.55,0.01,99,30.9,0.0,0,1198652463,2026-09-25T16:40:00.492Z,4.9,5.262,0.016,1,2026-09-25T16:39:59.697Z,799.8,,,,,,,,,,,,,,,,,,,191,2162.36,2026-09-25T16:40:00.490Z,6.6,0,1500,0,0,2026-09-25T16:40:00.491Z,6.1,1508,1487,1528,1494,255,2026-09-25T16:40:00.492Z,4.2,0.0,0.0,0.0,0.0,0.0,2026-09-25T16:40:00.492Z,4.6,2026-09-25T16:39:59.697Z,799.4,2026-09-25T16:40:00.298Z,198.4,2026-09-25T16:40:00.298Z,198.7,2026-09-25T16:40:00.298Z,199.0,2026-09-25T16:39:59.698Z,798.8
2026-09-25T16:40:00.543Z,2026-09-25T16:40:02.650Z,1.7,34,False,POSHOLD,1,0,-1.422654,1.094922,-168.017009,0.032659,0.013751,-0.006303,39.0187668,-104.8934907,2162.36,0.067,0.0,0.0,-0.01,191.99,0.0,0.017,39.0187668,-104.8934909,2166.45,0.0,90.0,31,6,0.7,1.36,0.005,0.012,0.011,0,0.098066,0.068647,-9.826263,0.0,0.0,0.0,-222,9,451,16.55,0.01,0,99,,1000,1000,1000,1000,0.021,0.022,0.024,0,0,0,831,0.0086,0.0049,0.008,0.0118,790.68,45.14,-180.0,0.0,0.0,2026-09-25T16:40:00.539Z,0.002,5.464,0,2026-04-01 14:44:02,17.75,639.9,0.0,0.0,4.0,4.0,2026-09-25T16:40:00.543Z,0.2,2026-09-25T16:40:00.540Z,3.2,2026-09-25T16:40:00.541Z,2.6,8,5,-999,0,0,0,2026-09-25T16:40:00.491Z,52.5,2026-09-25T16:40:00.493Z,50.7,2026-09-25T16:40:00.490Z,53.8,1790354401804872,106595,2026-09-25T16:39:59.698Z,846.0,,,,0,,,1,2026-09-25T16:40:00.491Z,52.1,16.55,0.01,99,30.9,0.0,0,1198652463,2026-09-25T16:40:00.492Z,51.7,5.262,0.016,1,2026-09-25T16:39:59.697Z,846.7,,,,,,,,,,,,,,,,,,,191,2162.36,2026-09-25T16:40:00.490Z,53.4,0,1500,0,0,2026-09-25T16:40:00.491Z,52.9,1508,1487,1528,1494,255,2026-09-25T16:40:00.492Z,51.1,0.0,0.0,0.0,0.0,0.0,2026-09-25T16:40:00.492Z,51.4,2026-09-25T16:39:59.697Z,846.3,2026-09-25T16:40:00.298Z,245.3,2026-09-25T16:40:00.298Z,245.6,2026-09-25T16:40:00.298Z,245.9,2026-09-25T16:39:59.698Z,845.7
2026-09-25T16:40:00.595Z,2026-09-25T16:40:02.702Z,1.75,35,False,POSHOLD,1,0,-1.423227,1.094349,-168.016436,-0.016616,-0.013751,-0.004011,39.0187668,-104.8934907,2162.36,0.069,0.0,0.0,-0.01,191.99,0.0,0.017,39.0187668,-104.8934909,2166.45,0.0,90.0,31,6,0.7,1.36,0.005,0.012,0.011,0,0.107873,0.068647,-9.816457,0.0,0.0,0.0,-222,9,451,16.559,0.01,0,99,,1000,1000,1000,1000,0.021,0.022,0.024,0,0,0,831,0.0086,0.0049,0.008,0.0118,790.68,45.14,-180.0,0.0,0.0,2026-09-25T16:40:00.589Z,0.002,7.185,0,2026-04-01 14:44:02,17.75,689.9,0.0,0.0,4.0,4.0,2026-09-25T16:40:00.543Z,52.0,2026-09-25T16:40:00.592Z,2.9,2026-09-25T16:40:00.593Z,2.3,8,5,-998,0,0,0,2026-09-25T16:40:00.591Z,4.3,2026-09-25T16:40:00.493Z,102.4,2026-09-25T16:40:00.590Z,5.6,1790354401804872,106595,2026-09-25T16:39:59.698Z,897.7,,,,0,,,1,2026-09-25T16:40:00.591Z,3.8,16.55,0.01,99,30.9,0.0,0,1198652463,2026-09-25T16:40:00.492Z,103.4,5.262,0.016,1,2026-09-25T16:39:59.697Z,898.4,,,,,,,,,,,,,,,,,,,191,2162.36,2026-09-25T16:40:00.590Z,5.2,0,1500,0,0,2026-09-25T16:40:00.590Z,4.7,1508,1487,1528,1494,255,2026-09-25T16:40:00.492Z,102.8,0.0,0.0,0.0,0.0,0.0,2026-09-25T16:40:00.492Z,103.1,2026-09-25T16:39:59.697Z,898.0,2026-09-25T16:40:00.298Z,297.0,2026-09-25T16:40:00.298Z,297.3,2026-09-25T16:40:00.298Z,297.6,2026-09-25T16:39:59.698Z,897.4
2026-09-25T16:40:00.643Z,2026-09-25T16:40:02.750Z,1.8,36,False,POSHOLD,1,0,-1.422654,1.094922,-168.014717,-0.014324,0.0,0.040107,39.0187668,-104.8934907,2162.36,0.069,0.0,0.0,-0.01,191.99,0.0,0.017,39.0187668,-104.8934909,2166.45,0.0,90.0,31,6,0.7,1.36,0.005,0.012,0.011,0,0.098066,0.05884,-9.826263,0.0,0.0,0.0,-222,9,450,16.559,0.01,0,99,,1000,1000,1000,1000,0.021,0.022,0.024,0,0,0,831,0.0086,0.0049,0.008,0.0118,790.68,45.14,-180.0,0.0,0.0,2026-09-25T16:40:00.639Z,0.002,5.481,0,2026-04-01 14:44:02,17.75,739.9,0.0,16.0,89.0,3.0,2026-09-25T16:40:00.643Z,0.7,2026-09-25T16:40:00.640Z,3.2,2026-09-25T16:40:00.641Z,2.6,8,5,-998,0,0,0,2026-09-25T16:40:00.591Z,52.6,2026-09-25T16:40:00.493Z,150.7,2026-09-25T16:40:00.590Z,53.9,1790354401804872,106595,2026-09-25T16:39:59.698Z,946.0,,,,0,,,1,2026-09-25T16:40:00.591Z,52.1,16.55,0.01,99,30.9,0.0,0,1198652463,2026-09-25T16:40:00.492Z,151.7,5.262,0.016,1,2026-09-25T16:39:59.697Z,946.7,,,,,,,,,,,,,,,,,,,191,2162.36,2026-09-25T16:40:00.590Z,53.5,0,1500,0,0,2026-09-25T16:40:00.590Z,53.0,1508,1487,1528,1494,255,2026-09-25T16:40:00.492Z,151.1,0.0,0.0,0.0,0.0,0.0,2026-09-25T16:40:00.492Z,151.4,2026-09-25T16:39:59.697Z,946.3,2026-09-25T16:40:00.298Z,345.3,2026-09-25T16:40:00.298Z,345.6,2026-09-25T16:40:00.298Z,345.9,2026-09-25T16:39:59.698Z,945.7
2026-09-25T16:40:00.698Z,2026-09-25T16:40:02.805Z,1.85,37,False,POSHOLD,1,0,-1.421508,1.094922,-168.012998,0.032659,0.024637,0.004011,39.0187668,-104.8934907,2162.37,0.071,0.0,0.0,-0.01,191.99,0.0,0.017,39.0187668,-104.8934909,2166.45,0.0,110.55,31,6,0.7,1.36,0.004,0.011,0.011,0,0.08826,0.068647,-9.816457,0.0,0.0,0.0,-222,9,450,16.56,0.01,0,99,,1000,1000,1000,1000,0.021,0.022,0.024,0,0,0,831,0.0086,0.0049,0.008,0.0118,790.68,45.14,-180.0,0.0,0.0,2026-09-25T16:40:00.689Z,0.002,9.884,0,2026-04-01 14:44:02,17.75,789.9,0.0,16.0,89.0,3.0,2026-09-25T16:40:00.643Z,55.1,2026-09-25T16:40:00.694Z,4.2,2026-09-25T16:40:00.694Z,3.6,8,7,-998,0,0,0,2026-09-25T16:40:00.691Z,7.0,2026-09-25T16:40:00.693Z,5.2,2026-09-25T16:40:00.690Z,8.2,1790354402804941,107595,2026-09-25T16:40:00.697Z,0.6,,,,0,,,1,2026-09-25T16:40:00.691Z,6.5,16.56,0.01,99,31.4,0.0,0,1198652463,2026-09-25T16:40:00.692Z,6.2,5.254,0.016,1,2026-09-25T16:40:00.697Z,1.2,,,,,,,,,,,,,,,,,,,191,2162.37,2026-09-25T16:40:00.690Z,7.9,0,1500,0,0,2026-09-25T16:40:00.691Z,7.4,1508,1487,1528,1494,255,2026-09-25T16:40:00.692Z,5.5,0.0,0.0,0.0,0.0,0.0,2026-09-25T16:40:00.692Z,5.9,2026-09-25T16:40:00.697Z,0.9,2026-09-25T16:40:00.298Z,399.7,2026-09-25T16:40:00.298Z,400.0,2026-09-25T16:40:00.298Z,400.3,2026-09-25T16:40:00.698Z,0.2
2026-09-25T16:40:00.743Z,2026-09-25T16:40:02.850Z,1.9,38,False,POSHOLD,1,0,-1.420362,1.094922,-168.012425,0.044118,0.00573,-0.010886,39.0187668,-104.8934907,2162.37,0.071,0.0,0.0,-0.01,191.99,0.0,0.017,39.0187668,-104.8934909,2166.45,0.0,110.55,31,6,0.7,1.36,0.004,0.011,0.011,0,0.098066,0.05884,-9.816457,0.0,0.0,0.0,-223,9,451,16.56,0.01,0,99,,1000,1000,1000,1000,0.021,0.022,0.024,0,0,0,831,0.0086,0.0049,0.008,0.0118,790.68,45.14,-180.0,0.0,0.0,2026-09-25T16:40:00.739Z,0.002,5.153,0,2026-04-01 14:44:02,17.75,839.9,0.0,16.0,89.0,3.0,2026-09-25T16:40:00.643Z,100.4,2026-09-25T16:40:00.740Z,2.9,2026-09-25T16:40:00.741Z,2.3,8,7,-998,0,0,0,2026-09-25T16:40:00.691Z,52.3,2026-09-25T16:40:00.693Z,50.5,2026-09-25T16:40:00.690Z,53.5,1790354402804941,107595,2026-09-25T16:40:00.697Z,45.8,,,,0,,,1,2026-09-25T16:40:00.691Z,51.8,16.56,0.01,99,31.4,0.0,0,1198652463,2026-09-25T16:40:00.692Z,51.5,5.254,0.016,1,2026-09-25T16:40:00.697Z,46.5,,,,,,,,,,,,,,,,,,,191,2162.37,2026-09-25T16:40:00.690Z,53.2,0,1500,0,0,2026-09-25T16:40:00.691Z,52.7,1508,1487,1528,1494,255,2026-09-25T16:40:00.692Z,50.8,0.0,0.0,0.0,0.0,0.0,2026-09-25T16:40:00.692Z,51.2,2026-09-25T16:40:00.697Z,46.2,2026-09-25T16:40:00.298Z,445.0,2026-09-25T16:40:00.298Z,445.3,2026-09-25T16:40:00.298Z,445.6,2026-09-25T16:40:00.698Z,45.5
2026-09-25T16:40:00.796Z,2026-09-25T16:40:02.903Z,1.95,39,False,POSHOLD,1,0,-1.419216,1.094922,-168.012425,0.008021,0.014897,-0.004011,39.0187668,-104.8934907,2162.37,0.072,0.0,0.0,-0.01,191.99,0.0,0.017,39.0187668,-104.8934909,2166.45,0.0,110.55,31,6,0.7,1.36,0.004,0.011,0.011,0,0.098066,0.05884,-9.816457,0.0,0.0,0.0,-223,9,451,16.554,0.01,0,99,,1000,1000,1000,1000,0.023,0.022,0.023,0,0,0,831,0.0134,0.0042,0.0187,0.009,790.728,45.15,-180.0,0.0,0.0,2026-09-25T16:40:00.789Z,0.002,8.348,0,2026-04-01 14:44:02,17.75,889.9,0.0,16.0,89.0,3.0,2026-09-25T16:40:00.643Z,153.5,2026-09-25T16:40:00.792Z,3.9,2026-09-25T16:40:00.793Z,3.2,8,6,-999,0,0,0,2026-09-25T16:40:00.791Z,5.3,2026-09-25T16:40:00.693Z,103.6,2026-09-25T16:40:00.790Z,6.7,1790354402804941,107595,2026-09-25T16:40:00.697Z,99.0,,,,0,,,1,2026-09-25T16:40:00.791Z,4.8,16.56,0.01,99,31.4,0.0,0,1198652463,2026-09-25T16:40:00.692Z,104.6,5.254,0.016,1,2026-09-25T16:40:00.697Z,99.6,,,,,,,,,,,,,,,,,,,191,2162.37,2026-09-25T16:40:00.790Z,6.3,0,1500,0,0,2026-09-25T16:40:00.791Z,5.7,1508,1487,1528,1494,255,2026-09-25T16:40:00.692Z,103.9,0.0,0.0,0.0,0.0,0.0,2026-09-25T16:40:00.692Z,104.3,2026-09-25T16:40:00.697Z,99.3,2026-09-25T16:40:00.796Z,0.2,2026-09-25T16:40:00.796Z,0.6,2026-09-25T16:40:00.795Z,0.9,2026-09-25T16:40:00.698Z,98.6
2026-09-25T16:40:00.843Z,2026-09-25T16:40:02.950Z,2.0,40,False,POSHOLD,1,0,-1.418071,1.094922,-168.012425,-0.012605,-0.006875,-0.013751,39.0187668,-104.8934907,2162.37,0.072,0.0,0.0,-0.01,191.99,0.0,0.017,39.0187668,-104.8934909,2166.45,0.0,110.55,31,6,0.7,1.36,0.004,0.011,0.011,0,0.098066,0.05884,-9.816457,0.0,0.0,0.0,-222,9,451,16.554,0.01,0,99,,1000,1000,1000,1000,0.023,0.022,0.023,0,0,0,831,0.0134,0.0042,0.0187,0.009,790.728,45.15,-180.0,0.0,0.0,2026-09-25T16:40:00.839Z,0.001,5.218,0,2026-04-01 14:44:02,17.75,939.9,0.0,16.0,89.0,3.0,2026-09-25T16:40:00.643Z,200.4,2026-09-25T16:40:00.840Z,2.9,2026-09-25T16:40:00.841Z,2.2,8,6,-999,0,0,0,2026-09-25T16:40:00.791Z,52.2,2026-09-25T16:40:00.693Z,150.5,2026-09-25T16:40:00.790Z,53.6,1790354402804941,107595,2026-09-25T16:40:00.697Z,145.9,,,,0,,,1,2026-09-25T16:40:00.791Z,51.8,16.56,0.01,99,31.4,0.0,0,1198652463,2026-09-25T16:40:00.692Z,151.5,5.254,0.016,1,2026-09-25T16:40:00.697Z,146.6,,,,,,,,,,,,,,,,,,,191,2162.37,2026-09-25T16:40:00.790Z,53.2,0,1500,0,0,2026-09-25T16:40:00.791Z,52.7,1508,1487,1528,1494,255,2026-09-25T16:40:00.692Z,150.9,0.0,0.0,0.0,0.0,0.0,2026-09-25T16:40:00.692Z,151.2,2026-09-25T16:40:00.697Z,146.2,2026-09-25T16:40:00.796Z,47.2,2026-09-25T16:40:00.796Z,47.5,2026-09-25T16:40:00.795Z,47.8,2026-09-25T16:40:00.698Z,145.6
2026-09-25T16:40:00.897Z,2026-09-25T16:40:03.004Z,2.05,41,False,POSHOLD,1,0,-1.418071,1.095495,-168.012998,0.007448,-0.003438,-0.045264,39.0187668,-104.8934907,2162.37,0.073,0.0,0.0,-0.01,191.99,0.0,0.017,39.0187668,-104.8934909,2166.46,0.0,90.0,31,6,0.7,1.36,0.003,0.011,0.01,0,0.098066,0.049033,-9.816457,0.0,0.0,0.0,-222,9,451,16.551,0.01,0,99,,1000,1000,1000,1000,0.023,0.022,0.023,0,0,0,831,0.0134,0.0042,0.0187,0.009,790.728,45.15,-180.0,0.0,0.0,2026-09-25T16:40:00.889Z,0.002,8.689,0,2026-04-01 14:44:02,17.75,989.9,0.0,16.0,89.0,3.0,2026-09-25T16:40:00.643Z,253.8,2026-09-25T16:40:00.894Z,2.9,2026-09-25T16:40:00.894Z,2.2,6,5,-1000,0,0,0,2026-09-25T16:40:00.891Z,5.7,2026-09-25T16:40:00.893Z,3.9,2026-09-25T16:40:00.890Z,7.0,1790354402804941,107595,2026-09-25T16:40:00.697Z,199.3,,,,0,,,1,2026-09-25T16:40:00.891Z,5.2,16.551,0.01,99,30.9,0.0,0,1198652463,2026-09-25T16:40:00.892Z,4.9,5.254,0.016,1,2026-09-25T16:40:00.697Z,200.0,,,,,,,,,,,,,,,,,,,191,2162.37,2026-09-25T16:40:00.890Z,6.6,0,1500,0,0,2026-09-25T16:40:00.891Z,6.1,1508,1487,1528,1494,255,2026-09-25T16:40:00.892Z,4.2,0.0,0.0,0.0,0.0,0.0,2026-09-25T16:40:00.892Z,4.6,2026-09-25T16:40:00.697Z,199.6,2026-09-25T16:40:00.796Z,100.6,2026-09-25T16:40:00.796Z,100.9,2026-09-25T16:40:00.795Z,101.2,2026-09-25T16:40:00.698Z,199.0
2026-09-25T16:40:00.946Z,2026-09-25T16:40:03.053Z,2.1,42,False,POSHOLD,1,0,-1.416925,1.095495,-168.013571,-0.014897,-0.004011,0.004584,39.0187668,-104.8934907,2162.37,0.073,0.0,0.0,-0.01,191.99,0.0,0.017,39.0187668,-104.8934909,2166.46,0.0,90.0,31,6,0.7,1.36,0.003,0.011,0.01,0,0.107873,0.05884,-9.816457,0.0,0.0,0.0,-223,9,451,16.551,0.01,0,99,,1000,1000,1000,1000,0.023,0.022,0.023,0,0,0,831,0.0134,0.0042,0.0187,0.009,790.728,45.15,-180.0,0.0,0.0,2026-09-25T16:40:00.939Z,0.002,7.945,0,2026-04-01 14:44:03,17.75,-6.7,0.0,16.0,89.0,3.0,2026-09-25T16:40:00.643Z,303.1,2026-09-25T16:40:00.940Z,5.6,2026-09-25T16:40:00.941Z,5.0,6,5,-1000,0,0,0,2026-09-25T16:40:00.891Z,55.0,2026-09-25T16:40:00.893Z,53.2,2026-09-25T16:40:00.890Z,56.3,1790354402804941,107595,2026-09-25T16:40:00.697Z,248.6,,,,0,,,1,2026-09-25T16:40:00.891Z,54.5,16.551,0.01,99,30.9,0.0,0,1198652463,2026-09-25T16:40:00.892Z,54.2,5.254,0.016,1,2026-09-25T16:40:00.697Z,249.3,,,,,,,,,,,,,,,,,,,191,2162.37,2026-09-25T16:40:00.890Z,55.9,0,1500,0,0,2026-09-25T16:40:00.891Z,55.4,1508,1487,1528,1494,255,2026-09-25T16:40:00.892Z,53.5,0.0,0.0,0.0,0.0,0.0,2026-09-25T16:40:00.892Z,53.9,2026-09-25T16:40:00.697Z,248.9,2026-09-25T16:40:00.796Z,149.9,2026-09-25T16:40:00.796Z,150.2,2026-09-25T16:40:00.795Z,150.5,2026-09-25T16:40:00.698Z,248.3
2026-09-25T16:40:00.995Z,2026-09-25T16:40:03.102Z,2.15,43,False,POSHOLD,1,0,-1.416352,1.095495,-168.016436,-0.012605,0.00974,-0.00974,39.0187668,-104.8934907,2162.37,0.071,0.0,0.0,0.0,191.99,0.0,0.017,39.0187668,-104.8934909,2166.46,0.0,90.0,31,6,0.7,1.36,0.003,0.01,0.01,0,0.098066,0.068647,-9.80665,0.0,0.0,0.0,-223,9,451,16.558,0.01,0,99,,1000,1000,1000,1000,0.023,0.022,0.023,0,0,0,831,0.0134,0.0042,0.0187,0.009,790.728,45.15,-180.0,0.0,0.0,2026-09-25T16:40:00.989Z,0.002,7.249,0,2026-04-01 14:44:03,17.75,43.3,0.0,16.0,89.0,3.0,2026-09-25T16:40:00.643Z,352.4,2026-09-25T16:40:00.992Z,2.9,2026-09-25T16:40:00.993Z,2.2,8,6,-998,0,0,0,2026-09-25T16:40:00.991Z,4.3,2026-09-25T16:40:00.893Z,102.5,2026-09-25T16:40:00.990Z,5.6,1790354402804941,107595,2026-09-25T16:40:00.697Z,297.9,,,,0,,,1,2026-09-25T16:40:00.991Z,3.8,16.551,0.01,99,30.9,0.0,0,1198652463,2026-09-25T16:40:00.892Z,103.5,5.254,0.016,1,2026-09-25T16:40:00.697Z,298.6,,,,,,,,,,,,,,,,,,,191,2162.37,2026-09-25T16:40:00.990Z,5.2,0,1500,0,0,2026-09-25T16:40:00.991Z,4.7,1508,1487,1528,1494,255,2026-09-25T16:40:00.892Z,102.8,0.0,0.0,0.0,0.0,0.0,2026-09-25T16:40:00.892Z,103.2,2026-09-25T16:40:00.697Z,298.2,2026-09-25T16:40:00.796Z,199.2,2026-09-25T16:40:00.796Z,199.5,2026-09-25T16:40:00.795Z,199.9,2026-09-25T16:40:00.698Z,297.6
2026-09-25T16:40:01.043Z,2026-09-25T16:40:03.150Z,2.2,44,False,POSHOLD,1,0,-1.415779,1.095495,-168.017009,0.016043,-0.008594,0.009167,39.0187668,-104.8934907,2162.37,0.071,0.0,0.0,0.0,191.99,0.0,0.017,39.0187668,-104.8934909,2166.46,0.0,90.0,31,6,0.7,1.36,0.003,0.01,0.01,0,0.08826,0.049033,-9.816457,0.0,0.0,0.0,-222,9,450,16.558,0.01,0,99,,1000,1000,1000,1000,0.023,0.022,0.023,0,0,0,831,0.0134,0.0042,0.0187,0.009,790.728,45.15,-180.0,0.0,0.0,2026-09-25T16:40:01.039Z,0.002,5.148,0,2026-04-01 14:44:03,17.75,93.3,0.0,16.0,89.0,3.0,2026-09-25T16:40:00.643Z,400.3,2026-09-25T16:40:01.040Z,2.9,2026-09-25T16:40:01.041Z,2.3,8,6,-998,0,0,0,2026-09-25T16:40:00.991Z,52.2,2026-09-25T16:40:00.893Z,150.4,2026-09-25T16:40:00.990Z,53.5,1790354402804941,107595,2026-09-25T16:40:00.697Z,345.8,,,,0,,,1,2026-09-25T16:40:00.991Z,51.7,16.551,0.01,99,30.9,0.0,0,1198652463,2026-09-25T16:40:00.892Z,151.4,5.254,0.016,1,2026-09-25T16:40:00.697Z,346.5,,,,,,,,,,,,,,,,,,,191,2162.37,2026-09-25T16:40:00.990Z,53.1,0,1500,0,0,2026-09-25T16:40:00.991Z,52.6,1508,1487,1528,1494,255,2026-09-25T16:40:00.892Z,150.7,0.0,0.0,0.0,0.0,0.0,2026-09-25T16:40:00.892Z,151.1,2026-09-25T16:40:00.697Z,346.1,2026-09-25T16:40:00.796Z,247.1,2026-09-25T16:40:00.796Z,247.4,2026-09-25T16:40:00.795Z,247.8,2026-09-25T16:40:00.698Z,345.5
2026-09-25T16:40:01.097Z,2026-09-25T16:40:03.204Z,2.25,45,False,POSHOLD,1,0,-1.414633,1.096068,-168.017582,-0.020054,-0.001146,0.004011,39.0187668,-104.8934907,2162.36,0.069,0.0,0.0,0.0,191.99,0.0,0.017,39.0187668,-104.8934909,2166.45,0.02,326.88,31,6,0.7,1.36,0.002,0.009,0.009,0,0.098066,0.05884,-9.826263,0.0,0.0,0.0,-222,9,450,16.556,0.0,0,99,,1000,1000,1000,1000,0.023,0.022,0.023,0,0,0,831,0.0134,0.0042,0.0187,0.009,790.728,45.15,-180.0,0.0,0.0,2026-09-25T16:40:01.089Z,0.002,9.178,0,2026-04-01 14:44:03,17.75,143.3,0.0,0.0,0.0,0.0,2026-09-25T16:40:01.090Z,7.2,2026-09-25T16:40:01.094Z,2.9,2026-09-25T16:40:01.095Z,2.3,8,6,-999,0,0,0,2026-09-25T16:40:01.091Z,5.7,2026-09-25T16:40:01.093Z,3.8,2026-09-25T16:40:01.090Z,6.9,1790354402804941,107595,2026-09-25T16:40:00.697Z,399.8,,,,0,,,1,2026-09-25T16:40:01.092Z,5.2,16.556,0.0,99,31.8,0.0,0,1198652463,2026-09-25T16:40:01.092Z,4.9,5.254,0.016,1,2026-09-25T16:40:00.697Z,400.5,,,,,,,,,,,,,,,,,,,191,2162.36,2026-09-25T16:40:01.091Z,6.6,0,1500,0,0,2026-09-25T16:40:01.091Z,6.1,1508,1487,1528,1494,255,2026-09-25T16:40:01.093Z,4.2,0.0,0.0,0.0,0.0,0.0,2026-09-25T16:40:01.093Z,4.6,2026-09-25T16:40:00.697Z,400.2,2026-09-25T16:40:00.796Z,301.1,2026-09-25T16:40:00.796Z,301.5,2026-09-25T16:40:00.795Z,301.8,2026-09-25T16:40:00.698Z,399.5
2026-09-25T16:40:01.143Z,2026-09-25T16:40:03.250Z,2.3,46,False,POSHOLD,1,0,-1.41406,1.096641,-168.0193,-0.008021,0.001719,-0.000573,39.0187668,-104.8934907,2162.36,0.069,0.0,0.0,0.0,191.99,0.0,0.017,39.0187668,-104.8934909,2166.45,0.02,326.88,31,6,0.7,1.36,0.002,0.009,0.009,0,0.098066,0.068647,-9.816457,0.0,0.0,0.0,-222,9,450,16.556,0.0,0,99,,1000,1000,1000,1000,0.023,0.022,0.023,0,0,0,831,0.0134,0.0042,0.0187,0.009,790.728,45.15,-180.0,0.0,0.0,2026-09-25T16:40:01.139Z,0.002,5.154,0,2026-04-01 14:44:03,17.75,193.3,0.0,0.0,0.0,0.0,2026-09-25T16:40:01.090Z,53.2,2026-09-25T16:40:01.140Z,2.9,2026-09-25T16:40:01.141Z,2.3,8,6,-999,0,0,0,2026-09-25T16:40:01.091Z,51.7,2026-09-25T16:40:01.093Z,49.8,2026-09-25T16:40:01.090Z,52.9,1790354402804941,107595,2026-09-25T16:40:00.697Z,445.8,,,,0,,,1,2026-09-25T16:40:01.092Z,51.2,16.556,0.0,99,31.8,0.0,0,1198652463,2026-09-25T16:40:01.092Z,50.9,5.254,0.016,1,2026-09-25T16:40:00.697Z,446.5,,,,,,,,,,,,,,,,,,,191,2162.36,2026-09-25T16:40:01.091Z,52.6,0,1500,0,0,2026-09-25T16:40:01.091Z,52.1,1508,1487,1528,1494,255,2026-09-25T16:40:01.093Z,50.2,0.0,0.0,0.0,0.0,0.0,2026-09-25T16:40:01.093Z,50.6,2026-09-25T16:40:00.697Z,446.2,2026-09-25T16:40:00.796Z,347.1,2026-09-25T16:40:00.796Z,347.4,2026-09-25T16:40:00.795Z,347.8,2026-09-25T16:40:00.698Z,445.5
2026-09-25T16:40:01.195Z,2026-09-25T16:40:03.302Z,2.35,47,False,POSHOLD,1,0,-1.412341,1.097214,-168.020446,0.020054,-0.006303,-0.005157,39.0187668,-104.8934907,2162.36,0.066,0.0,0.0,0.0,191.98,0.0,0.017,39.0187668,-104.8934909,2166.45,0.02,326.88,31,6,0.7,1.36,0.002,0.009,0.009,0,0.098066,0.05884,-9.816457,0.0,0.0,0.0,-222,9,450,16.558,0.01,0,99,,1000,1000,1000,1000,0.023,0.022,0.023,0,0,0,831,0.0134,0.0042,0.0187,0.009,790.728,45.15,-180.0,0.0,0.0,2026-09-25T16:40:01.189Z,0.001,7.258,0,2026-04-01 14:44:03,17.75,243.3,0.0,0.0,0.0,0.0,2026-09-25T16:40:01.090Z,105.3,2026-09-25T16:40:01.192Z,2.9,2026-09-25T16:40:01.193Z,2.2,7,5,-999,0,0,0,2026-09-25T16:40:01.191Z,4.3,2026-09-25T16:40:01.093Z,101.9,2026-09-25T16:40:01.190Z,5.6,1790354402804941,107595,2026-09-25T16:40:00.697Z,497.9,,,,0,,,1,2026-09-25T16:40:01.191Z,3.9,16.556,0.0,99,31.8,0.0,0,1198652463,2026-09-25T16:40:01.092Z,103.0,5.254,0.016,1,2026-09-25T16:40:00.697Z,498.6,,,,,,,,,,,,,,,,,,,191,2162.36,2026-09-25T16:40:01.190Z,5.2,0,1500,0,0,2026-09-25T16:40:01.191Z,4.7,1508,1487,1528,1494,255,2026-09-25T16:40:01.093Z,102.3,0.0,0.0,0.0,0.0,0.0,2026-09-25T16:40:01.093Z,102.7,2026-09-25T16:40:00.697Z,498.3,2026-09-25T16:40:00.796Z,399.2,2026-09-25T16:40:00.796Z,399.6,2026-09-25T16:40:00.795Z,399.9,2026-09-25T16:40:00.698Z,497.6
2026-09-25T16:40:01.243Z,2026-09-25T16:40:03.350Z,2.4,48,False,POSHOLD,1,0,-1.411768,1.097787,-168.022165,-0.031513,-0.001146,-0.03495,39.0187668,-104.8934907,2162.36,0.066,0.0,0.0,0.0,191.98,0.0,0.017,39.0187668,-104.8934909,2166.45,0.02,326.88,31,6,0.7,1.36,0.002,0.009,0.009,0,0.098066,0.05884,-9.816457,0.0,0.0,0.0,-222,9,450,16.558,0.01,0,99,,1000,1000,1000,1000,0.023,0.022,0.023,0,0,0,831,0.0134,0.0042,0.0187,0.009,790.728,45.15,-180.0,0.0,0.0,2026-09-25T16:40:01.239Z,0.001,5.162,0,2026-04-01 14:44:03,17.75,293.3,0.0,0.0,0.0,0.0,2026-09-25T16:40:01.090Z,153.2,2026-09-25T16:40:01.240Z,2.9,2026-09-25T16:40:01.241Z,2.3,7,5,-999,0,0,0,2026-09-25T16:40:01.191Z,52.2,2026-09-25T16:40:01.093Z,149.8,2026-09-25T16:40:01.190Z,53.5,1790354402804941,107595,2026-09-25T16:40:00.697Z,545.8,,,,0,,,1,2026-09-25T16:40:01.191Z,51.8,16.556,0.0,99,31.8,0.0,0,1198652463,2026-09-25T16:40:01.092Z,150.9,5.254,0.016,1,2026-09-25T16:40:00.697Z,546.5,,,,,,,,,,,,,,,,,,,191,2162.36,2026-09-25T16:40:01.190Z,53.1,0,1500,0,0,2026-09-25T16:40:01.191Z,52.6,1508,1487,1528,1494,255,2026-09-25T16:40:01.093Z,150.2,0.0,0.0,0.0,0.0,0.0,2026-09-25T16:40:01.093Z,150.6,2026-09-25T16:40:00.697Z,546.2,2026-09-25T16:40:00.796Z,447.1,2026-09-25T16:40:00.796Z,447.5,2026-09-25T16:40:00.795Z,447.8,2026-09-25T16:40:00.698Z,545.5
2026-09-25T16:40:01.298Z,2026-09-25T16:40:03.405Z,2.45,49,False,POSHOLD,1,0,-1.410622,1.097787,-168.022165,0.020054,-0.000573,0.014324,39.0187668,-104.8934907,2162.36,0.062,0.0,0.0,0.0,191.98,0.0,0.017,39.0187668,-104.8934908,2166.45,0.0,45.0,31,6,0.7,1.36,0.002,0.008,0.007,0,0.098066,0.068647,-9.816457,0.0,0.0,0.0,-222,9,450,16.554,0.01,0,99,,1000,1000,1000,1000,0.022,0.023,0.023,0,0,0,831,0.0142,0.0011,0.0073,0.0065,790.694,45.14,-180.0,0.0,0.0,2026-09-25T16:40:01.289Z,0.002,9.628,0,2026-04-01 14:44:03,17.75,343.3,0.0,0.0,0.0,0.0,2026-09-25T16:40:01.090Z,207.7,2026-09-25T16:40:01.294Z,3.9,2026-09-25T16:40:01.294Z,3.2,7,6,-999,0,0,0,2026-09-25T16:40:01.291Z,6.7,2026-09-25T16:40:01.293Z,4.9,2026-09-25T16:40:01.290Z,8.0,1790354402804941,107595,2026-09-25T16:40:00.697Z,600.3,,,,0,,,1,2026-09-25T16:40:01.291Z,6.2,16.554,0.01,99,30.9,0.0,0,1198652463,2026-09-25T16:40:01.292Z,5.9,5.254,0.016,1,2026-09-25T16:40:00.697Z,601.0,,,,,,,,,,,,,,,,,,,191,2162.36,2026-09-25T16:40:01.290Z,7.6,0,1500,0,0,2026-09-25T16:40:01.291Z,7.1,1508,1487,1528,1494,255,2026-09-25T16:40:01.292Z,5.2,0.0,0.0,0.0,0.0,0.0,2026-09-25T16:40:01.292Z,5.6,2026-09-25T16:40:00.697Z,600.6,2026-09-25T16:40:01.297Z,0.2,2026-09-25T16:40:01.297Z,0.6,2026-09-25T16:40:01.297Z,0.9,2026-09-25T16:40:00.698Z,600.0
2026-09-25T16:40:01.343Z,2026-09-25T16:40:03.450Z,2.5,50,False,POSHOLD,1,0,-1.409476,1.098933,-168.022165,0.003438,0.024637,-0.008021,39.0187668,-104.8934907,2162.36,0.062,0.0,0.0,0.0,191.98,0.0,0.017,39.0187668,-104.8934908,2166.45,0.0,45.0,31,6,0.7,1.36,0.002,0.008,0.007,0,0.098066,0.05884,-9.80665,0.0,0.0,0.0,-223,9,451,16.554,0.01,0,99,,1000,1000,1000,1000,0.022,0.023,0.023,0,0,0,831,0.0142,0.0011,0.0073,0.0065,790.694,45.14,-180.0,0.0,0.0,2026-09-25T16:40:01.339Z,0.002,5.147,0,2026-04-01 14:44:03,17.75,393.3,0.0,0.0,0.0,0.0,2026-09-25T16:40:01.090Z,253.2,2026-09-25T16:40:01.340Z,2.9,2026-09-25T16:40:01.341Z,2.3,7,6,-999,0,0,0,2026-09-25T16:40:01.291Z,52.2,2026-09-25T16:40:01.293Z,50.4,2026-09-25T16:40:01.290Z,53.5,1790354402804941,107595,2026-09-25T16:40:00.697Z,645.8,,,,0,,,1,2026-09-25T16:40:01.291Z,51.7,16.554,0.01,99,30.9,0.0,0,1198652463,2026-09-25T16:40:01.292Z,51.4,5.254,0.016,1,2026-09-25T16:40:00.697Z,646.5,,,,,,,,,,,,,,,,,,,191,2162.36,2026-09-25T16:40:01.290Z,53.1,0,1500,0,0,2026-09-25T16:40:01.291Z,52.6,1508,1487,1528,1494,255,2026-09-25T16:40:01.292Z,50.7,0.0,0.0,0.0,0.0,0.0,2026-09-25T16:40:01.292Z,51.1,2026-09-25T16:40:00.697Z,646.2,2026-09-25T16:40:01.297Z,45.8,2026-09-25T16:40:01.297Z,46.1,2026-09-25T16:40:01.297Z,46.5,2026-09-25T16:40:00.698Z,645.5
2026-09-25T16:40:01.395Z,2026-09-25T16:40:03.502Z,2.55,51,False,POSHOLD,1,0,-1.409476,1.100079,-168.022165,-0.012032,0.022345,0.025783,39.0187668,-104.8934907,2162.35,0.058,0.0,0.0,0.0,191.98,0.0,0.017,39.0187668,-104.8934908,2166.45,0.0,45.0,31,6,0.7,1.36,0.002,0.007,0.007,0,0.098066,0.068647,-9.816457,0.0,0.0,0.0,-223,9,451,16.555,0.01,0,99,,1000,1000,1000,1000,0.022,0.023,0.023,0,0,0,831,0.0142,0.0011,0.0073,0.0065,790.694,45.14,-180.0,0.0,0.0,2026-09-25T16:40:01.389Z,0.002,7.323,0,2026-04-01 14:44:03,17.75,443.3,0.0,0.0,0.0,0.0,2026-09-25T16:40:01.090Z,305.4,2026-09-25T16:40:01.392Z,3.0,2026-09-25T16:40:01.393Z,2.4,8,5,-1000,0,0,0,2026-09-25T16:40:01.391Z,4.5,2026-09-25T16:40:01.293Z,102.6,2026-09-25T16:40:01.390Z,5.7,1790354402804941,107595,2026-09-25T16:40:00.697Z,698.0,,,,0,,,1,2026-09-25T16:40:01.391Z,4.0,16.554,0.01,99,30.9,0.0,0,1198652463,2026-09-25T16:40:01.292Z,103.6,5.254,0.016,1,2026-09-25T16:40:00.697Z,698.7,,,,,,,,,,,,,,,,,,,191,2162.35,2026-09-25T16:40:01.390Z,5.4,0,1500,0,0,2026-09-25T16:40:01.390Z,4.9,1508,1487,1528,1494,255,2026-09-25T16:40:01.292Z,102.9,0.0,0.0,0.0,0.0,0.0,2026-09-25T16:40:01.292Z,103.3,2026-09-25T16:40:00.697Z,698.3,2026-09-25T16:40:01.297Z,97.9,2026-09-25T16:40:01.297Z,98.3,2026-09-25T16:40:01.297Z,98.6,2026-09-25T16:40:00.698Z,697.7
2026-09-25T16:40:01.443Z,2026-09-25T16:40:03.550Z,2.6,52,False,POSHOLD,1,0,-1.408903,1.100079,-168.023884,0.044691,0.020626,0.002292,39.0187668,-104.8934907,2162.35,0.058,0.0,0.0,0.0,191.98,0.0,0.017,39.0187668,-104.8934908,2166.45,0.0,45.0,31,6,0.7,1.36,0.002,0.007,0.007,0,0.098066,0.05884,-9.826263,0.0,0.0,0.0,-222,9,450,16.555,0.01,0,99,,1000,1000,1000,1000,0.022,0.023,0.023,0,0,0,831,0.0142,0.0011,0.0073,0.0065,790.694,45.14,-180.0,0.0,0.0,2026-09-25T16:40:01.439Z,0.002,5.139,0,2026-04-01 14:44:03,17.75,493.3,0.0,0.0,0.0,0.0,2026-09-25T16:40:01.090Z,353.2,2026-09-25T16:40:01.440Z,2.9,2026-09-25T16:40:01.441Z,2.3,8,5,-1000,0,0,0,2026-09-25T16:40:01.391Z,52.3,2026-09-25T16:40:01.293Z,150.4,2026-09-25T16:40:01.390Z,53.5,1790354402804941,107595,2026-09-25T16:40:00.697Z,745.8,,,,0,,,1,2026-09-25T16:40:01.391Z,51.8,16.554,0.01,99,30.9,0.0,0,1198652463,2026-09-25T16:40:01.292Z,151.4,5.254,0.016,1,2026-09-25T16:40:00.697Z,746.5,,,,,,,,,,,,,,,,,,,191,2162.35,2026-09-25T16:40:01.390Z,53.2,0,1500,0,0,2026-09-25T16:40:01.390Z,52.7,1508,1487,1528,1494,255,2026-09-25T16:40:01.292Z,150.7,0.0,0.0,0.0,0.0,0.0,2026-09-25T16:40:01.292Z,151.1,2026-09-25T16:40:00.697Z,746.1,2026-09-25T16:40:01.297Z,145.8,2026-09-25T16:40:01.297Z,146.1,2026-09-25T16:40:01.297Z,146.5,2026-09-25T16:40:00.698Z,745.5
2026-09-25T16:40:01.497Z,2026-09-25T16:40:03.604Z,2.65,53,False,POSHOLD,1,0,-1.410049,1.098933,-168.024457,-0.024064,-0.006303,-0.029794,39.0187668,-104.8934907,2162.35,0.054,0.0,0.0,0.0,191.98,0.0,0.017,39.0187668,-104.8934908,2166.45,0.02,121.75,31,6,0.7,1.36,0.002,0.006,0.006,0,0.107873,0.068647,-9.816457,0.0,0.0,0.0,-222,9,450,16.557,0.01,0,99,,1000,1000,1000,1000,0.022,0.023,0.023,0,0,0,831,0.0142,0.0011,0.0073,0.0065,790.694,45.14,-180.0,0.0,0.0,2026-09-25T16:40:01.489Z,0.001,8.794,0,2026-04-01 14:44:03,17.75,543.3,0.0,0.0,0.0,0.0,2026-09-25T16:40:01.090Z,406.8,2026-09-25T16:40:01.494Z,2.9,2026-09-25T16:40:01.495Z,2.3,7,6,-999,0,0,0,2026-09-25T16:40:01.491Z,5.7,2026-09-25T16:40:01.493Z,3.9,2026-09-25T16:40:01.490Z,7.0,1790354402804941,107595,2026-09-25T16:40:00.697Z,799.4,,,,0,,,1,2026-09-25T16:40:01.492Z,5.3,16.557,0.01,99,30.8,0.0,0,1198652463,2026-09-25T16:40:01.492Z,4.9,5.254,0.016,1,2026-09-25T16:40:00.697Z,800.1,,,,,,,,,,,,,,,,,,,191,2162.35,2026-09-25T16:40:01.490Z,6.6,0,1500,0,0,2026-09-25T16:40:01.491Z,6.1,1508,1487,1528,1494,255,2026-09-25T16:40:01.493Z,4.3,0.0,0.0,0.0,0.0,0.0,2026-09-25T16:40:01.492Z,4.6,2026-09-25T16:40:00.697Z,799.7,2026-09-25T16:40:01.297Z,199.3,2026-09-25T16:40:01.297Z,199.7,2026-09-25T16:40:01.297Z,200.0,2026-09-25T16:40:00.698Z,799.1
2026-09-25T16:40:01.543Z,2026-09-25T16:40:03.650Z,2.7,54,False,POSHOLD,1,0,-1.409476,1.098933,-168.02503,0.011459,0.008021,-0.00974,39.0187668,-104.8934907,2162.35,0.054,0.0,0.0,0.0,191.98,0.0,0.017,39.0187668,-104.8934908,2166.45,0.02,121.75,31,6,0.7,1.36,0.002,0.006,0.006,0,0.098066,0.05884,-9.816457,0.0,0.0,0.0,-223,9,451,16.557,0.01,0,99,,1000,1000,1000,1000,0.022,0.023,0.023,0,0,0,831,0.0142,0.0011,0.0073,0.0065,790.694,45.14,-180.0,0.0,0.0,2026-09-25T16:40:01.539Z,0.002,5.474,0,2026-04-01 14:44:03,17.75,593.3,0.0,0.0,4.0,4.0,2026-09-25T16:40:01.543Z,0.2,2026-09-25T16:40:01.540Z,3.2,2026-09-25T16:40:01.541Z,2.6,7,6,-999,0,0,0,2026-09-25T16:40:01.491Z,52.5,2026-09-25T16:40:01.493Z,50.7,2026-09-25T16:40:01.490Z,53.7,1790354402804941,107595,2026-09-25T16:40:00.697Z,846.2,,,,0,,,1,2026-09-25T16:40:01.492Z,52.0,16.557,0.01,99,30.8,0.0,0,1198652463,2026-09-25T16:40:01.492Z,51.7,5.254,0.016,1,2026-09-25T16:40:00.697Z,846.8,,,,,,,,,,,,,,,,,,,191,2162.35,2026-09-25T16:40:01.490Z,53.4,0,1500,0,0,2026-09-25T16:40:01.491Z,52.9,1508,1487,1528,1494,255,2026-09-25T16:40:01.493Z,51.0,0.0,0.0,0.0,0.0,0.0,2026-09-25T16:40:01.492Z,51.4,2026-09-25T16:40:00.697Z,846.5,2026-09-25T16:40:01.297Z,246.1,2026-09-25T16:40:01.297Z,246.4,2026-09-25T16:40:01.297Z,246.8,2026-09-25T16:40:00.698Z,845.8
2026-09-25T16:40:01.595Z,2026-09-25T16:40:03.702Z,2.75,55,False,POSHOLD,1,0,-1.410049,1.098933,-168.025603,-0.020626,0.00974,0.013178,39.0187668,-104.8934907,2162.35,0.052,0.0,0.0,0.0,191.98,0.0,0.017,39.0187668,-104.8934908,2166.45,0.02,121.75,31,6,0.7,1.36,0.003,0.005,0.005,0,0.098066,0.05884,-9.816457,0.0,0.0,0.0,-223,9,451,16.559,0.01,0,99,,1000,1000,1000,1000,0.022,0.023,0.023,0,0,0,831,0.0142,0.0011,0.0073,0.0065,790.694,45.14,-180.0,0.0,0.0,2026-09-25T16:40:01.589Z,0.002,7.169,0,2026-04-01 14:44:03,17.75,643.3,0.0,0.0,4.0,4.0,2026-09-25T16:40:01.543Z,51.9,2026-09-25T16:40:01.592Z,2.9,2026-09-25T16:40:01.593Z,2.3,7,6,-998,0,0,0,2026-09-25T16:40:01.591Z,4.3,2026-09-25T16:40:01.493Z,102.3,2026-09-25T16:40:01.590Z,5.6,1790354402804941,107595,2026-09-25T16:40:00.697Z,897.8,,,,0,,,1,2026-09-25T16:40:01.591Z,3.8,16.557,0.01,99,30.8,0.0,0,1198652463,2026-09-25T16:40:01.492Z,103.4,5.254,0.016,1,2026-09-25T16:40:00.697Z,898.5,,,,,,,,,,,,,,,,,,,191,2162.35,2026-09-25T16:40:01.590Z,5.2,0,1500,0,0,2026-09-25T16:40:01.590Z,4.7,1508,1487,1528,1494,255,2026-09-25T16:40:01.493Z,102.7,0.0,0.0,0.0,0.0,0.0,2026-09-25T16:40:01.492Z,103.1,2026-09-25T16:40:00.697Z,898.2,2026-09-25T16:40:01.297Z,297.8,2026-09-25T16:40:01.297Z,298.1,2026-09-25T16:40:01.297Z,298.5,2026-09-25T16:40:00.698Z,897.5
2026-09-25T16:40:01.643Z,2026-09-25T16:40:03.750Z,2.8,56,False,POSHOLD,1,0,-1.411195,1.098933,-168.024457,-0.009167,-0.007448,0.012605,39.0187668,-104.8934907,2162.35,0.052,0.0,0.0,0.0,191.98,0.0,0.017,39.0187668,-104.8934908,2166.45,0.02,121.75,31,6,0.7,1.36,0.003,0.005,0.005,0,0.098066,0.068647,-9.816457,0.0,0.0,0.0,-221,9,450,16.559,0.01,0,99,,1000,1000,1000,1000,0.022,0.023,0.023,0,0,0,831,0.0142,0.0011,0.0073,0.0065,790.694,45.14,-180.0,0.0,0.0,2026-09-25T16:40:01.639Z,0.002,5.48,0,2026-04-01 14:44:03,17.75,693.3,0.0,16.0,89.0,3.0,2026-09-25T16:40:01.643Z,1.0,2026-09-25T16:40:01.640Z,3.2,2026-09-25T16:40:01.641Z,2.6,7,6,-998,0,0,0,2026-09-25T16:40:01.591Z,52.6,2026-09-25T16:40:01.493Z,150.7,2026-09-25T16:40:01.590Z,53.9,1790354402804941,107595,2026-09-25T16:40:00.697Z,946.2,,,,0,,,1,2026-09-25T16:40:01.591Z,52.1,16.557,0.01,99,30.8,0.0,0,1198652463,2026-09-25T16:40:01.492Z,151.7,5.254,0.016,1,2026-09-25T16:40:00.697Z,946.9,,,,,,,,,,,,,,,,,,,191,2162.35,2026-09-25T16:40:01.590Z,53.5,0,1500,0,0,2026-09-25T16:40:01.590Z,53.0,1508,1487,1528,1494,255,2026-09-25T16:40:01.493Z,151.0,0.0,0.0,0.0,0.0,0.0,2026-09-25T16:40:01.492Z,151.4,2026-09-25T16:40:00.697Z,946.5,2026-09-25T16:40:01.297Z,346.1,2026-09-25T16:40:01.297Z,346.4,2026-09-25T16:40:01.297Z,346.8,2026-09-25T16:40:00.698Z,945.8
2026-09-25T16:40:01.698Z,2026-09-25T16:40:03.805Z,2.85,57,False,POSHOLD,1,0,-1.410049,1.09836,-168.023884,0.014324,0.017762,-0.001719,39.0187668,-104.8934907,2162.35,0.052,0.0,0.0,0.0,191.98,0.0,0.017,39.0187668,-104.8934909,2166.45,0.01,225.0,31,6,0.7,1.36,0.002,0.005,0.005,0,0.107873,0.068647,-9.816457,0.0,0.0,0.0,-221,9,450,16.562,0.01,0,99,,1000,1000,1000,1000,0.022,0.023,0.023,0,0,0,831,0.0142,0.0011,0.0073,0.0065,790.694,45.14,-180.0,0.0,0.0,2026-09-25T16:40:01.689Z,0.002,9.918,0,2026-04-01 14:44:03,17.75,743.3,0.0,16.0,89.0,3.0,2026-09-25T16:40:01.643Z,55.4,2026-09-25T16:40:01.694Z,4.2,2026-09-25T16:40:01.694Z,3.6,7,6,-998,0,0,0,2026-09-25T16:40:01.691Z,7.0,2026-09-25T16:40:01.693Z,5.2,2026-09-25T16:40:01.690Z,8.3,1790354403804947,108595,2026-09-25T16:40:01.697Z,0.6,,,,0,,,1,2026-09-25T16:40:01.691Z,6.5,16.562,0.01,99,31.3,0.0,0,1198652463,2026-09-25T16:40:01.692Z,6.2,5.252,0.014,1,2026-09-25T16:40:01.697Z,1.3,,,,,,,,,,,,,,,,,,,191,2162.35,2026-09-25T16:40:01.690Z,7.9,0,1500,0,0,2026-09-25T16:40:01.691Z,7.4,1508,1487,1528,1494,255,2026-09-25T16:40:01.692Z,5.5,0.0,0.0,0.0,0.0,0.0,2026-09-25T16:40:01.692Z,5.9,2026-09-25T16:40:01.697Z,0.9,2026-09-25T16:40:01.297Z,400.5,2026-09-25T16:40:01.297Z,400.8,2026-09-25T16:40:01.297Z,401.2,2026-09-25T16:40:01.698Z,0.2
2026-09-25T16:40:01.745Z,2026-09-25T16:40:03.852Z,2.9,58,False,POSHOLD,1,0,-1.410622,1.096641,-168.022165,0.002865,0.00573,0.000573,39.0187668,-104.8934907,2162.35,0.052,0.0,0.0,0.0,191.98,0.0,0.017,39.0187668,-104.8934909,2166.45,0.01,225.0,31,6,0.7,1.36,0.002,0.005,0.005,0,0.098066,0.05884,-9.826263,0.0,0.0,0.0,-223,9,451,16.562,0.01,0,99,,1000,1000,1000,1000,0.022,0.023,0.023,0,0,0,831,0.0142,0.0011,0.0073,0.0065,790.694,45.14,-180.0,0.0,0.0,2026-09-25T16:40:01.739Z,0.003,7.391,0,2026-04-01 14:44:03,17.75,793.3,0.0,16.0,89.0,3.0,2026-09-25T16:40:01.643Z,102.4,2026-09-25T16:40:01.741Z,4.1,2026-09-25T16:40:01.742Z,3.1,7,6,-998,0,0,0,2026-09-25T16:40:01.691Z,54.0,2026-09-25T16:40:01.693Z,52.2,2026-09-25T16:40:01.690Z,55.3,1790354403804947,108595,2026-09-25T16:40:01.697Z,47.6,,,,0,,,1,2026-09-25T16:40:01.691Z,53.6,16.562,0.01,99,31.3,0.0,0,1198652463,2026-09-25T16:40:01.692Z,53.2,5.252,0.014,1,2026-09-25T16:40:01.697Z,48.3,,,,,,,,,,,,,,,,,,,191,2162.35,2026-09-25T16:40:01.690Z,54.9,0,1500,0,0,2026-09-25T16:40:01.691Z,54.4,1508,1487,1528,1494,255,2026-09-25T16:40:01.692Z,52.6,0.0,0.0,0.0,0.0,0.0,2026-09-25T16:40:01.692Z,52.9,2026-09-25T16:40:01.697Z,47.9,2026-09-25T16:40:01.297Z,447.5,2026-09-25T16:40:01.297Z,447.9,2026-09-25T16:40:01.297Z,448.2,2026-09-25T16:40:01.698Z,47.3
2026-09-25T16:40:01.799Z,2026-09-25T16:40:03.906Z,2.95,59,False,POSHOLD,1,0,-1.410049,1.096068,-168.023884,-0.002292,-0.024637,-0.041253,39.0187668,-104.8934907,2162.35,0.052,0.0,0.0,0.0,191.98,0.0,0.017,39.0187668,-104.8934909,2166.45,0.01,225.0,31,6,0.7,1.36,0.002,0.005,0.004,0,0.098066,0.05884,-9.816457,0.0,0.0,0.0,-223,9,451,16.556,0.01,0,99,,1000,1000,1000,1000,0.02,0.021,0.022,0,0,0,831,0.013,0.001,0.0124,0.0224,790.669,45.14,-180.0,0.0,0.0,2026-09-25T16:40:01.789Z,0.002,11.567,0,2026-04-01 14:44:03,17.75,843.3,0.0,16.0,89.0,3.0,2026-09-25T16:40:01.643Z,156.6,2026-09-25T16:40:01.794Z,5.5,2026-09-25T16:40:01.795Z,4.6,7,6,-998,0,0,0,2026-09-25T16:40:01.792Z,7.5,2026-09-25T16:40:01.693Z,106.4,2026-09-25T16:40:01.790Z,9.3,1790354403804947,108595,2026-09-25T16:40:01.697Z,101.8,,,,0,,,1,2026-09-25T16:40:01.792Z,6.9,16.562,0.01,99,31.3,0.0,0,1198652463,2026-09-25T16:40:01.692Z,107.5,5.252,0.014,1,2026-09-25T16:40:01.697Z,102.5,,,,,,,,,,,,,,,,,,,191,2162.35,2026-09-25T16:40:01.790Z,8.8,0,1500,0,0,2026-09-25T16:40:01.791Z,8.1,1508,1487,1528,1494,255,2026-09-25T16:40:01.692Z,106.8,0.0,0.0,0.0,0.0,0.0,2026-09-25T16:40:01.692Z,107.1,2026-09-25T16:40:01.697Z,102.1,2026-09-25T16:40:01.799Z,0.3,2026-09-25T16:40:01.798Z,0.8,2026-09-25T16:40:01.798Z,1.3,2026-09-25T16:40:01.698Z,101.5
2026-09-25T16:40:01.845Z,2026-09-25T16:40:03.952Z,3.0,60,False,POSHOLD,1,0,-1.411195,1.095495,-168.023311,-0.039534,0.001146,0.04068,39.0187668,-104.8934907,2162.35,0.052,0.0,0.0,0.0,191.98,0.0,0.017,39.0187668,-104.8934909,2166.45,0.01,225.0,31,6,0.7,1.36,0.002,0.005,0.004,0,0.098066,0.068647,-9.816457,0.0,0.0,0.0,-222,9,450,16.556,0.01,0,99,,1000,1000,1000,1000,0.02,0.021,0.022,0,0,0,831,0.013,0.001,0.0124,0.0224,790.669,45.14,-180.0,0.0,0.0,2026-09-25T16:40:01.839Z,0.002,7.357,0,2026-04-01 14:44:03,17.75,893.3,0.0,16.0,89.0,3.0,2026-09-25T16:40:01.643Z,202.4,2026-09-25T16:40:01.841Z,4.1,2026-09-25T16:40:01.842Z,3.1,7,6,-998,0,0,0,2026-09-25T16:40:01.792Z,53.3,2026-09-25T16:40:01.693Z,152.2,2026-09-25T16:40:01.790Z,55.0,1790354403804947,108595,2026-09-25T16:40:01.697Z,147.5,,,,0,,,1,2026-09-25T16:40:01.792Z,52.6,16.562,0.01,99,31.3,0.0,0,1198652463,2026-09-25T16:40:01.692Z,153.2,5.252,0.014,1,2026-09-25T16:40:01.697Z,148.2,,,,,,,,,,,,,,,,,,,191,2162.35,2026-09-25T16:40:01.790Z,54.5,0,1500,0,0,2026-09-25T16:40:01.791Z,53.9,1508,1487,1528,1494,255,2026-09-25T16:40:01.692Z,152.5,0.0,0.0,0.0,0.0,0.0,2026-09-25T16:40:01.692Z,152.9,2026-09-25T16:40:01.697Z,147.9,2026-09-25T16:40:01.799Z,46.1,2026-09-25T16:40:01.798Z,46.5,2026-09-25T16:40:01.798Z,47.0,2026-09-25T16:40:01.698Z,147.2
2026-09-25T16:40:01.900Z,2026-09-25T16:40:04.007Z,3.05,61,False,POSHOLD,1,0,-1.410622,1.095495,-168.023884,0.022345,0.00974,-0.01547,39.0187668,-104.8934907,2162.35,0.052,0.0,0.0,0.0,191.98,0.0,0.017,39.0187668,-104.8934908,2166.45,0.01,345.06,31,6,0.7,1.36,0.003,0.005,0.004,0,0.098066,0.05884,-9.816457,0.0,0.0,0.0,-222,9,450,16.551,0.01,0,99,,1000,1000,1000,1000,0.02,0.021,0.022,0,0,0,831,0.013,0.001,0.0124,0.0224,790.669,45.14,-180.0,0.0,0.0,2026-09-25T16:40:01.889Z,0.003,12.144,0,2026-04-01 14:44:03,17.75,943.3,0.0,16.0,89.0,3.0,2026-09-25T16:40:01.643Z,257.1,2026-09-25T16:40:01.896Z,4.1,2026-09-25T16:40:01.896Z,3.2,8,6,-999,0,0,0,2026-09-25T16:40:01.892Z,8.1,2026-09-25T16:40:01.894Z,5.4,2026-09-25T16:40:01.890Z,9.8,1790354403804947,108595,2026-09-25T16:40:01.697Z,202.3,,,,0,,,1,2026-09-25T16:40:01.892Z,7.4,16.551,0.01,99,31.0,0.0,0,1198652463,2026-09-25T16:40:01.893Z,7.0,5.252,0.014,1,2026-09-25T16:40:01.697Z,203.0,,,,,,,,,,,,,,,,,,,191,2162.35,2026-09-25T16:40:01.890Z,9.4,0,1500,0,0,2026-09-25T16:40:01.891Z,8.7,1508,1487,1528,1494,255,2026-09-25T16:40:01.894Z,5.9,0.0,0.0,0.0,0.0,0.0,2026-09-25T16:40:01.893Z,6.5,2026-09-25T16:40:01.697Z,202.6,2026-09-25T16:40:01.799Z,100.8,2026-09-25T16:40:01.798Z,101.3,2026-09-25T16:40:01.798Z,101.7,2026-09-25T16:40:01.698Z,202.0
2026-09-25T16:40:01.945Z,2026-09-25T16:40:04.052Z,3.1,62,False,POSHOLD,1,0,-1.408903,1.095495,-168.024457,0.041253,-0.011459,-0.011459,39.0187668,-104.8934907,2162.35,0.052,0.0,0.0,0.0,191.98,0.0,0.017,39.0187668,-104.8934908,2166.45,0.01,345.06,31,6,0.7,1.36,0.003,0.005,0.004,0,0.098066,0.05884,-9.80665,0.0,0.0,0.0,-222,9,450,16.551,0.01,0,99,,1000,1000,1000,1000,0.02,0.021,0.022,0,0,0,831,0.013,0.001,0.0124,0.0224,790.669,45.14,-180.0,0.0,0.0,2026-09-25T16:40:01.939Z,0.003,7.209,0,2026-04-01 14:44:03,17.75,993.3,0.0,16.0,89.0,3.0,2026-09-25T16:40:01.643Z,302.2,2026-09-25T16:40:01.941Z,4.0,2026-09-25T16:40:01.942Z,3.1,8,6,-999,0,0,0,2026-09-25T16:40:01.892Z,53.2,2026-09-25T16:40:01.894Z,50.5,2026-09-25T16:40:01.890Z,54.9,1790354403804947,108595,2026-09-25T16:40:01.697Z,247.4,,,,0,,,1,2026-09-25T16:40:01.892Z,52.5,16.551,0.01,99,31.0,0.0,0,1198652463,2026-09-25T16:40:01.893Z,52.1,5.252,0.014,1,2026-09-25T16:40:01.697Z,248.1,,,,,,,,,,,,,,,,,,,191,2162.35,2026-09-25T16:40:01.890Z,54.5,0,1500,0,0,2026-09-25T16:40:01.891Z,53.8,1508,1487,1528,1494,255,2026-09-25T16:40:01.894Z,51.0,0.0,0.0,0.0,0.0,0.0,2026-09-25T16:40:01.893Z,51.5,2026-09-25T16:40:01.697Z,247.7,2026-09-25T16:40:01.799Z,145.9,2026-09-25T16:40:01.798Z,146.4,2026-09-25T16:40:01.798Z,146.8,2026-09-25T16:40:01.698Z,247.1
2026-09-25T16:40:02.002Z,2026-09-25T16:40:04.109Z,3.15,63,False,POSHOLD,1,0,-1.40833,1.094922,-168.024457,-0.000573,-0.017762,-0.004011,39.0187668,-104.8934907,2162.35,0.055,0.0,0.0,0.0,191.98,0.0,0.017,39.0187668,-104.8934908,2166.45,0.01,345.06,31,6,0.7,1.36,0.003,0.006,0.005,0,0.098066,0.05884,-9.816457,0.0,0.0,0.0,-222,9,450,16.554,0.01,0,99,,1000,1000,1000,1000,0.02,0.021,0.022,0,0,0,831,0.013,0.001,0.0124,0.0224,790.669,45.14,-180.0,0.0,0.0,2026-09-25T16:40:01.989Z,0.003,14.877,0,2026-04-01 14:44:04,17.75,-13.1,0.0,0.0,0.0,0.0,2026-09-25T16:40:01.998Z,4.2,2026-09-25T16:40:01.994Z,8.8,2026-09-25T16:40:01.994Z,8.0,7,5,-999,0,0,0,2026-09-25T16:40:01.992Z,10.9,2026-09-25T16:40:01.894Z,108.2,2026-09-25T16:40:01.990Z,12.6,1790354403804947,108595,2026-09-25T16:40:01.697Z,305.1,,,,0,,,1,2026-09-25T16:40:01.992Z,10.2,16.551,0.01,99,31.0,0.0,0,1198652463,2026-09-25T16:40:01.893Z,109.7,5.252,0.014,1,2026-09-25T16:40:01.697Z,305.8,,,,,,,,,,,,,,,,,,,191,2162.35,2026-09-25T16:40:01.990Z,12.2,0,1500,0,0,2026-09-25T16:40:01.991Z,11.5,1508,1487,1528,1494,255,2026-09-25T16:40:01.894Z,108.7,0.0,0.0,0.0,0.0,0.0,2026-09-25T16:40:01.893Z,109.2,2026-09-25T16:40:01.697Z,305.4,2026-09-25T16:40:01.799Z,203.6,2026-09-25T16:40:01.798Z,204.1,2026-09-25T16:40:01.798Z,204.5,2026-09-25T16:40:01.698Z,304.8
2026-09-25T16:40:02.045Z,2026-09-25T16:40:04.152Z,3.2,64,False,POSHOLD,1,0,-1.407757,1.095495,-168.025603,-0.020626,0.020054,0.003438,39.0187668,-104.8934907,2162.35,0.055,0.0,0.0,0.0,191.98,0.0,0.017,39.0187668,-104.8934908,2166.45,0.01,345.06,31,6,0.7,1.36,0.003,0.006,0.005,0,0.098066,0.05884,-9.816457,0.0,0.0,0.0,-221,9,450,16.554,0.01,0,99,,1000,1000,1000,1000,0.02,0.021,0.022,0,0,0,831,0.013,0.001,0.0124,0.0224,790.669,45.14,-180.0,0.0,0.0,2026-09-25T16:40:02.039Z,0.003,7.31,0,2026-04-01 14:44:04,17.75,36.9,0.0,0.0,0.0,0.0,2026-09-25T16:40:01.998Z,46.6,2026-09-25T16:40:02.041Z,4.1,2026-09-25T16:40:02.042Z,3.1,7,5,-999,0,0,0,2026-09-25T16:40:01.992Z,53.3,2026-09-25T16:40:01.894Z,150.6,2026-09-25T16:40:01.990Z,55.0,1790354403804947,108595,2026-09-25T16:40:01.697Z,347.5,,,,0,,,1,2026-09-25T16:40:01.992Z,52.6,16.551,0.01,99,31.0,0.0,0,1198652463,2026-09-25T16:40:01.893Z,152.2,5.252,0.014,1,2026-09-25T16:40:01.697Z,348.2,,,,,,,,,,,,,,,,,,,191,2162.35,2026-09-25T16:40:01.990Z,54.6,0,1500,0,0,2026-09-25T16:40:01.991Z,53.9,1508,1487,1528,1494,255,2026-09-25T16:40:01.894Z,151.1,0.0,0.0,0.0,0.0,0.0,2026-09-25T16:40:01.893Z,151.6,2026-09-25T16:40:01.697Z,347.8,2026-09-25T16:40:01.799Z,246.0,2026-09-25T16:40:01.798Z,246.5,2026-09-25T16:40:01.798Z,246.9,2026-09-25T16:40:01.698Z,347.2
2026-09-25T16:40:02.099Z,2026-09-25T16:40:04.206Z,3.25,65,False,POSHOLD,1,0,-1.407184,1.094922,-168.02503,-0.005157,-0.0,0.022345,39.0187668,-104.8934908,2162.35,0.059,0.0,0.0,0.0,191.98,0.0,0.009,39.0187668,-104.8934908,2166.45,0.01,174.28,31,6,0.7,1.36,0.003,0.006,0.006,0,0.098066,0.049033,-9.826263,0.0,0.0,0.0,-221,9,450,16.557,0.01,0,99,,1000,1000,1000,1000,0.02,0.021,0.022,0,0,0,831,0.013,0.001,0.0124,0.0224,790.669,45.14,-180.0,0.0,0.0,2026-09-25T16:40:02.089Z,0.003,12.13,0,2026-04-01 14:44:04,17.75,86.9,0.0,0.0,0.0,0.0,2026-09-25T16:40:01.998Z,101.4,2026-09-25T16:40:02.096Z,4.1,2026-09-25T16:40:02.096Z,3.2,7,4,-998,0,0,0,2026-09-25T16:40:02.092Z,8.1,2026-09-25T16:40:02.094Z,5.4,2026-09-25T16:40:02.090Z,9.8,1790354403804947,108595,2026-09-25T16:40:01.697Z,402.3,,,,0,,,1,2026-09-25T16:40:02.092Z,7.4,16.557,0.01,99,32.0,0.0,0,1198652463,2026-09-25T16:40:02.093Z,7.0,5.252,0.014,1,2026-09-25T16:40:01.697Z,403.0,,,,,,,,,,,,,,,,,,,191,2162.35,2026-09-25T16:40:02.090Z,9.3,0,1500,0,0,2026-09-25T16:40:02.091Z,8.7,1508,1487,1528,1494,255,2026-09-25T16:40:02.094Z,5.9,0.0,0.0,0.0,0.0,0.0,2026-09-25T16:40:02.093Z,6.4,2026-09-25T16:40:01.697Z,402.6,2026-09-25T16:40:01.799Z,300.8,2026-09-25T16:40:01.798Z,301.3,2026-09-25T16:40:01.798Z,301.7,2026-09-25T16:40:01.698Z,402.0
2026-09-25T16:40:02.145Z,2026-09-25T16:40:04.252Z,3.3,66,False,POSHOLD,1,0,-1.406611,1.093776,-168.02503,0.006875,-0.021772,0.028648,39.0187668,-104.8934908,2162.35,0.059,0.0,0.0,0.0,191.98,0.0,0.009,39.0187668,-104.8934908,2166.45,0.01,174.28,31,6,0.7,1.36,0.003,0.006,0.006,0,0.098066,0.05884,-9.80665,0.0,0.0,0.0,-222,9,450,16.557,0.01,0,99,,1000,1000,1000,1000,0.02,0.021,0.022,0,0,0,831,0.013,0.001,0.0124,0.0224,790.669,45.14,-180.0,0.0,0.0,2026-09-25T16:40:02.139Z,0.003,8.012,0,2026-04-01 14:44:04,17.75,136.9,0.0,0.0,0.0,0.0,2026-09-25T16:40:01.998Z,147.4,2026-09-25T16:40:02.141Z,4.8,2026-09-25T16:40:02.142Z,3.7,7,4,-998,0,0,0,2026-09-25T16:40:02.092Z,54.0,2026-09-25T16:40:02.094Z,51.4,2026-09-25T16:40:02.090Z,55.8,1790354403804947,108595,2026-09-25T16:40:01.697Z,448.2,,,,0,,,1,2026-09-25T16:40:02.092Z,53.4,16.557,0.01,99,32.0,0.0,0,1198652463,2026-09-25T16:40:02.093Z,52.9,5.252,0.014,1,2026-09-25T16:40:01.697Z,448.9,,,,,,,,,,,,,,,,,,,191,2162.35,2026-09-25T16:40:02.090Z,55.3,0,1500,0,0,2026-09-25T16:40:02.091Z,54.6,1508,1487,1528,1494,255,2026-09-25T16:40:02.094Z,51.9,0.0,0.0,0.0,0.0,0.0,2026-09-25T16:40:02.093Z,52.4,2026-09-25T16:40:01.697Z,448.6,2026-09-25T16:40:01.799Z,346.8,2026-09-25T16:40:01.798Z,347.2,2026-09-25T16:40:01.798Z,347.7,2026-09-25T16:40:01.698Z,447.9
2026-09-25T16:40:02.198Z,2026-09-25T16:40:04.305Z,3.35,67,False,POSHOLD,1,0,-1.405465,1.094349,-168.025603,0.020054,0.026356,-0.02521,39.0187668,-104.8934908,2162.36,0.062,0.0,0.0,0.0,191.98,0.0,0.009,39.0187668,-104.8934908,2166.45,0.01,174.28,31,6,0.7,1.36,0.003,0.007,0.006,0,0.107873,0.068647,-9.816457,0.0,0.0,0.0,-222,9,450,16.562,0.01,0,99,,1000,1000,1000,1000,0.02,0.021,0.022,0,0,0,831,0.013,0.001,0.0124,0.0224,790.669,45.14,-180.0,0.0,0.0,2026-09-25T16:40:02.189Z,0.002,10.204,0,2026-04-01 14:44:04,17.75,186.9,0.0,0.0,0.0,0.0,2026-09-25T16:40:01.998Z,199.6,2026-09-25T16:40:02.194Z,4.1,2026-09-25T16:40:02.195Z,3.2,6,5,-999,0,0,0,2026-09-25T16:40:02.192Z,6.2,2026-09-25T16:40:02.094Z,103.6,2026-09-25T16:40:02.190Z,7.9,1790354403804947,108595,2026-09-25T16:40:01.697Z,500.4,,,,0,,,1,2026-09-25T16:40:02.192Z,5.5,16.557,0.01,99,32.0,0.0,0,1198652463,2026-09-25T16:40:02.093Z,105.1,5.252,0.014,1,2026-09-25T16:40:01.697Z,501.1,,,,,,,,,,,,,,,,,,,191,2162.36,2026-09-25T16:40:02.190Z,7.4,0,1500,0,0,2026-09-25T16:40:02.191Z,6.8,1508,1487,1528,1494,255,2026-09-25T16:40:02.094Z,104.1,0.0,0.0,0.0,0.0,0.0,2026-09-25T16:40:02.093Z,104.6,2026-09-25T16:40:01.697Z,500.8,2026-09-25T16:40:01.799Z,399.0,2026-09-25T16:40:01.798Z,399.4,2026-09-25T16:40:01.798Z,399.9,2026-09-25T16:40:01.698Z,500.1
2026-09-25T16:40:02.245Z,2026-09-25T16:40:04.352Z,3.4,68,False,POSHOLD,1,0,-1.40432,1.093776,-168.026749,0.020054,-0.012032,0.008594,39.0187668,-104.8934908,2162.36,0.062,0.0,0.0,0.0,191.98,0.0,0.009,39.0187668,-104.8934908,2166.45,0.01,174.28,31,6,0.7,1.36,0.003,0.007,0.006,0,0.098066,0.068647,-9.80665,0.0,0.0,0.0,-221,9,450,16.562,0.01,0,99,,1000,1000,1000,1000,0.02,0.021,0.022,0,0,0,831,0.013,0.001,0.0124,0.0224,790.669,45.14,-180.0,0.0,0.0,2026-09-25T16:40:02.239Z,0.003,7.257,0,2026-04-01 14:44:04,17.75,236.9,0.0,0.0,0.0,0.0,2026-09-25T16:40:01.998Z,246.6,2026-09-25T16:40:02.241Z,4.1,2026-09-25T16:40:02.242Z,3.1,6,5,-999,0,0,0,2026-09-25T16:40:02.192Z,53.2,2026-09-25T16:40:02.094Z,150.6,2026-09-25T16:40:02.190Z,54.9,1790354403804947,108595,2026-09-25T16:40:01.697Z,547.4,,,,0,,,1,2026-09-25T16:40:02.192Z,52.5,16.557,0.01,99,32.0,0.0,0,1198652463,2026-09-25T16:40:02.093Z,152.1,5.252,0.014,1,2026-09-25T16:40:01.697Z,548.1,,,,,,,,,,,,,,,,,,,191,2162.36,2026-09-25T16:40:02.190Z,54.4,0,1500,0,0,2026-09-25T16:40:02.191Z,53.8,1508,1487,1528,1494,255,2026-09-25T16:40:02.094Z,151.1,0.0,0.0,0.0,0.0,0.0,2026-09-25T16:40:02.093Z,151.6,2026-09-25T16:40:01.697Z,547.8,2026-09-25T16:40:01.799Z,446.0,2026-09-25T16:40:01.798Z,446.4,2026-09-25T16:40:01.798Z,446.9,2026-09-25T16:40:01.698Z,547.1
2026-09-25T16:40:02.301Z,2026-09-25T16:40:04.408Z,3.45,69,False,POSHOLD,1,0,-1.403174,1.093203,-168.028468,0.022918,0.003438,-0.032659,39.0187668,-104.8934908,2162.36,0.064,0.0,0.0,0.0,191.98,0.0,0.009,39.0187668,-104.8934908,2166.45,0.02,170.21,31,6,0.7,1.36,0.002,0.007,0.006,0,0.098066,0.068647,-9.826263,0.0,0.0,0.0,-221,9,450,16.561,0.01,0,99,,1000,1000,1000,1000,0.023,0.022,0.023,0,0,0,831,0.0179,0.0007,0.0018,0.0052,790.718,45.14,-180.0,0.0,0.0,2026-09-25T16:40:02.289Z,0.003,13.574,0,2026-04-01 14:44:04,17.75,286.9,0.0,0.0,0.0,0.0,2026-09-25T16:40:01.998Z,302.9,2026-09-25T16:40:02.296Z,5.5,2026-09-25T16:40:02.297Z,4.6,8,5,-999,0,0,0,2026-09-25T16:40:02.292Z,9.5,2026-09-25T16:40:02.294Z,6.8,2026-09-25T16:40:02.290Z,11.3,1790354403804947,108595,2026-09-25T16:40:01.697Z,603.8,,,,0,,,1,2026-09-25T16:40:02.292Z,8.8,16.561,0.01,99,31.3,0.0,0,1198652463,2026-09-25T16:40:02.293Z,8.4,5.252,0.014,1,2026-09-25T16:40:01.697Z,604.5,,,,,,,,,,,,,,,,,,,191,2162.36,2026-09-25T16:40:02.290Z,10.8,0,1500,0,0,2026-09-25T16:40:02.291Z,10.1,1508,1487,1528,1494,255,2026-09-25T16:40:02.294Z,7.3,0.0,0.0,0.0,0.0,0.0,2026-09-25T16:40:02.293Z,7.8,2026-09-25T16:40:01.697Z,604.1,2026-09-25T16:40:02.301Z,0.4,2026-09-25T16:40:02.300Z,0.8,2026-09-25T16:40:02.300Z,1.3,2026-09-25T16:40:01.698Z,603.5
2026-09-25T16:40:02.345Z,2026-09-25T16:40:04.452Z,3.5,70,False,POSHOLD,1,0,-1.402601,1.092058,-168.029041,0.009167,-0.027502,0.035523,39.0187668,-104.8934908,2162.36,0.064,0.0,0.0,0.0,191.98,0.0,0.009,39.0187668,-104.8934908,2166.45,0.02,170.21,31,6,0.7,1.36,0.002,0.007,0.006,0,0.098066,0.068647,-9.826263,0.0,0.0,0.0,-223,9,451,16.561,0.01,0,99,,1000,1000,1000,1000,0.023,0.022,0.023,0,0,0,831,0.0179,0.0007,0.0018,0.0052,790.718,45.14,-180.0,0.0,0.0,2026-09-25T16:40:02.339Z,0.002,7.234,0,2026-04-01 14:44:04,17.75,336.9,0.0,0.0,0.0,0.0,2026-09-25T16:40:01.998Z,346.5,2026-09-25T16:40:02.341Z,4.1,2026-09-25T16:40:02.342Z,3.1,8,5,-999,0,0,0,2026-09-25T16:40:02.292Z,53.1,2026-09-25T16:40:02.294Z,50.4,2026-09-25T16:40:02.290Z,54.9,1790354403804947,108595,2026-09-25T16:40:01.697Z,647.4,,,,0,,,1,2026-09-25T16:40:02.292Z,52.4,16.561,0.01,99,31.3,0.0,0,1198652463,2026-09-25T16:40:02.293Z,52.0,5.252,0.014,1,2026-09-25T16:40:01.697Z,648.1,,,,,,,,,,,,,,,,,,,191,2162.36,2026-09-25T16:40:02.290Z,54.4,0,1500,0,0,2026-09-25T16:40:02.291Z,53.7,1508,1487,1528,1494,255,2026-09-25T16:40:02.294Z,50.9,0.0,0.0,0.0,0.0,0.0,2026-09-25T16:40:02.293Z,51.4,2026-09-25T16:40:01.697Z,647.7,2026-09-25T16:40:02.301Z,44.0,2026-09-25T16:40:02.300Z,44.4,2026-09-25T16:40:02.300Z,44.9,2026-09-25T16:40:01.698Z,647.1
2026-09-25T16:40:02.398Z,2026-09-25T16:40:04.505Z,3.55,71,False,POSHOLD,1,0,-1.402028,1.090912,-168.03076,-0.002865,-0.003438,0.003438,39.0187668,-104.8934908,2162.36,0.066,0.0,0.0,0.0,191.97,0.0,0.009,39.0187668,-104.8934908,2166.45,0.02,170.21,31,6,0.7,1.36,0.002,0.007,0.007,0,0.098066,0.068647,-9.816457,0.0,0.0,0.0,-223,9,451,16.55,0.01,0,99,,1000,1000,1000,1000,0.023,0.022,0.023,0,0,0,831,0.0179,0.0007,0.0018,0.0052,790.718,45.14,-180.0,0.0,0.0,2026-09-25T16:40:02.389Z,0.003,10.654,0,2026-04-01 14:44:04,17.75,386.9,0.0,0.0,0.0,0.0,2026-09-25T16:40:01.998Z,400.0,2026-09-25T16:40:02.394Z,4.1,2026-09-25T16:40:02.395Z,3.2,7,5,-999,0,0,0,2026-09-25T16:40:02.392Z,6.7,2026-09-25T16:40:02.294Z,103.9,2026-09-25T16:40:02.390Z,8.4,1790354403804947,108595,2026-09-25T16:40:01.697Z,700.9,,,,0,,,1,2026-09-25T16:40:02.392Z,6.0,16.561,0.01,99,31.3,0.0,0,1198652463,2026-09-25T16:40:02.293Z,105.5,5.252,0.014,1,2026-09-25T16:40:01.697Z,701.6,,,,,,,,,,,,,,,,,,,191,2162.36,2026-09-25T16:40:02.390Z,8.0,0,1500,0,0,2026-09-25T16:40:02.391Z,7.3,1508,1487,1528,1494,255,2026-09-25T16:40:02.294Z,104.4,0.0,0.0,0.0,0.0,0.0,2026-09-25T16:40:02.293Z,104.9,2026-09-25T16:40:01.697Z,701.2,2026-09-25T16:40:02.301Z,97.5,2026-09-25T16:40:02.300Z,97.9,2026-09-25T16:40:02.300Z,98.4,2026-09-25T16:40:01.698Z,700.6
2026-09-25T16:40:02.445Z,2026-09-25T16:40:04.552Z,3.6,72,False,POSHOLD,1,0,-1.402028,1.090912,-168.031333,0.010886,-0.001719,0.013178,39.0187668,-104.8934908,2162.36,0.066,0.0,0.0,0.0,191.97,0.0,0.009,39.0187668,-104.8934908,2166.45,0.02,170.21,31,6,0.7,1.36,0.002,0.007,0.007,0,0.08826,0.05884,-9.816457,0.0,0.0,0.0,-221,9,451,16.55,0.01,0,99,,1000,1000,1000,1000,0.023,0.022,0.023,0,0,0,831,0.0179,0.0007,0.0018,0.0052,790.718,45.14,-180.0,0.0,0.0,2026-09-25T16:40:02.439Z,0.003,7.263,0,2026-04-01 14:44:04,17.75,436.9,0.0,0.0,0.0,0.0,2026-09-25T16:40:01.998Z,446.6,2026-09-25T16:40:02.441Z,4.1,2026-09-25T16:40:02.442Z,3.1,7,5,-999,0,0,0,2026-09-25T16:40:02.392Z,53.3,2026-09-25T16:40:02.294Z,150.5,2026-09-25T16:40:02.390Z,55.0,1790354403804947,108595,2026-09-25T16:40:01.697Z,747.4,,,,0,,,1,2026-09-25T16:40:02.392Z,52.6,16.561,0.01,99,31.3,0.0,0,1198652463,2026-09-25T16:40:02.293Z,152.0,5.252,0.014,1,2026-09-25T16:40:01.697Z,748.1,,,,,,,,,,,,,,,,,,,191,2162.36,2026-09-25T16:40:02.390Z,54.5,0,1500,0,0,2026-09-25T16:40:02.391Z,53.8,1508,1487,1528,1494,255,2026-09-25T16:40:02.294Z,151.0,0.0,0.0,0.0,0.0,0.0,2026-09-25T16:40:02.293Z,151.5,2026-09-25T16:40:01.697Z,747.8,2026-09-25T16:40:02.301Z,144.0,2026-09-25T16:40:02.300Z,144.5,2026-09-25T16:40:02.300Z,144.9,2026-09-25T16:40:01.698Z,747.1
2026-09-25T16:40:02.499Z,2026-09-25T16:40:04.606Z,3.65,73,False,POSHOLD,1,0,-1.402601,1.089766,-168.03477,-0.005157,-0.024637,-0.006875,39.0187668,-104.8934908,2162.36,0.069,0.0,0.0,0.0,191.97,0.0,0.009,39.0187668,-104.8934908,2166.45,0.02,43.02,31,6,0.7,1.36,0.002,0.008,0.008,0,0.098066,0.05884,-9.816457,0.0,0.0,0.0,-221,9,451,16.553,0.01,0,99,,1000,1000,1000,1000,0.023,0.022,0.023,0,0,0,831,0.0179,0.0007,0.0018,0.0052,790.718,45.14,-180.0,0.0,0.0,2026-09-25T16:40:02.489Z,0.002,12.097,0,2026-04-01 14:44:04,17.75,486.9,0.0,0.0,0.0,0.0,2026-09-25T16:40:01.998Z,501.4,2026-09-25T16:40:02.496Z,4.1,2026-09-25T16:40:02.496Z,3.2,7,6,-998,0,0,0,2026-09-25T16:40:02.492Z,8.1,2026-09-25T16:40:02.494Z,5.4,2026-09-25T16:40:02.490Z,9.8,1790354403804947,108595,2026-09-25T16:40:01.697Z,802.2,,,,0,,,1,2026-09-25T16:40:02.492Z,7.4,16.553,0.01,99,31.1,0.0,0,1198652463,2026-09-25T16:40:02.493Z,6.9,5.252,0.014,1,2026-09-25T16:40:01.697Z,802.9,,,,,,,,,,,,,,,,,,,191,2162.36,2026-09-25T16:40:02.490Z,9.3,0,1500,0,0,2026-09-25T16:40:02.491Z,8.6,1508,1487,1528,1494,255,2026-09-25T16:40:02.494Z,5.9,0.0,0.0,0.0,0.0,0.0,2026-09-25T16:40:02.493Z,6.4,2026-09-25T16:40:01.697Z,802.6,2026-09-25T16:40:02.301Z,198.8,2026-09-25T16:40:02.300Z,199.3,2026-09-25T16:40:02.300Z,199.7,2026-09-25T16:40:01.698Z,801.9
2026-09-25T16:40:02.546Z,2026-09-25T16:40:04.653Z,3.7,74,False,POSHOLD,1,0,-1.403174,1.089766,-168.037635,0.0,-0.010886,-0.009167,39.0187668,-104.8934908,2162.36,0.069,0.0,0.0,0.0,191.97,0.0,0.009,39.0187668,-104.8934908,2166.45,0.02,43.02,31,6,0.7,1.36,0.002,0.008,0.008,0,0.107873,0.05884,-9.826263,0.0,0.0,0.0,-223,9,451,16.553,0.01,0,99,,1000,1000,1000,1000,0.023,0.022,0.023,0,0,0,831,0.0179,0.0007,0.0018,0.0052,790.718,45.14,-180.0,0.0,0.0,2026-09-25T16:40:02.539Z,0.002,8.287,0,2026-04-01 14:44:04,17.75,536.9,0.0,0.0,4.0,4.0,2026-09-25T16:40:02.546Z,0.3,2026-09-25T16:40:02.541Z,5.1,2026-09-25T16:40:02.542Z,4.2,7,6,-998,0,0,0,2026-09-25T16:40:02.492Z,54.3,2026-09-25T16:40:02.494Z,51.7,2026-09-25T16:40:02.490Z,56.1,1790354403804947,108595,2026-09-25T16:40:01.697Z,848.5,,,,0,,,1,2026-09-25T16:40:02.492Z,53.7,16.553,0.01,99,31.1,0.0,0,1198652463,2026-09-25T16:40:02.493Z,53.2,5.252,0.014,1,2026-09-25T16:40:01.697Z,849.2,,,,,,,,,,,,,,,,,,,191,2162.36,2026-09-25T16:40:02.490Z,55.6,0,1500,0,0,2026-09-25T16:40:02.491Z,54.9,1508,1487,1528,1494,255,2026-09-25T16:40:02.494Z,52.2,0.0,0.0,0.0,0.0,0.0,2026-09-25T16:40:02.493Z,52.7,2026-09-25T16:40:01.697Z,848.8,2026-09-25T16:40:02.301Z,245.1,2026-09-25T16:40:02.300Z,245.6,2026-09-25T16:40:02.300Z,246.0,2026-09-25T16:40:01.698Z,848.2
2026-09-25T16:40:02.598Z,2026-09-25T16:40:04.705Z,3.75,75,False,POSHOLD,1,0,-1.402601,1.089766,-168.039927,0.026929,-0.002292,0.008594,39.0187668,-104.8934907,2162.37,0.071,0.0,0.0,0.0,191.97,0.0,0.017,39.0187668,-104.8934908,2166.45,0.02,43.02,31,6,0.7,1.36,0.002,0.009,0.008,0,0.098066,0.068647,-9.816457,0.0,0.0,0.0,-223,9,451,16.554,0.01,0,99,,1000,1000,1000,1000,0.023,0.022,0.023,0,0,0,831,0.0179,0.0007,0.0018,0.0052,790.718,45.14,-180.0,0.0,0.0,2026-09-25T16:40:02.589Z,0.003,10.109,0,2026-04-01 14:44:04,17.75,586.9,0.0,0.0,4.0,4.0,2026-09-25T16:40:02.546Z,52.1,2026-09-25T16:40:02.594Z,4.1,2026-09-25T16:40:02.594Z,3.2,8,6,-999,0,0,0,2026-09-25T16:40:02.592Z,6.1,2026-09-25T16:40:02.494Z,103.5,2026-09-25T16:40:02.590Z,7.9,1790354403804947,108595,2026-09-25T16:40:01.697Z,900.3,,,,0,,,1,2026-09-25T16:40:02.592Z,5.5,16.553,0.01,99,31.1,0.0,0,1198652463,2026-09-25T16:40:02.493Z,105.0,5.252,0.014,1,2026-09-25T16:40:01.697Z,901.0,,,,,,,,,,,,,,,,,,,191,2162.37,2026-09-25T16:40:02.590Z,7.4,0,1500,0,0,2026-09-25T16:40:02.591Z,6.7,1508,1487,1528,1494,255,2026-09-25T16:40:02.494Z,104.0,0.0,0.0,0.0,0.0,0.0,2026-09-25T16:40:02.493Z,104.5,2026-09-25T16:40:01.697Z,900.7,2026-09-25T16:40:02.301Z,296.9,2026-09-25T16:40:02.300Z,297.4,2026-09-25T16:40:02.300Z,297.8,2026-09-25T16:40:01.698Z,900.0
2026-09-25T16:40:02.645Z,2026-09-25T16:40:04.752Z,3.8,76,False,POSHOLD,1,0,-1.403174,1.08862,-168.041073,0.006875,-0.008021,-0.000573,39.0187668,-104.8934907,2162.37,0.071,0.0,0.0,0.0,191.97,0.0,0.017,39.0187668,-104.8934908,2166.45,0.02,43.02,31,6,0.7,1.36,0.002,0.009,0.008,0,0.08826,0.05884,-9.816457,0.0,0.0,0.0,-222,10,450,16.554,0.01,0,99,,1000,1000,1000,1000,0.023,0.022,0.023,0,0,0,831,0.0179,0.0007,0.0018,0.0052,790.718,45.14,-180.0,0.0,0.0,2026-09-25T16:40:02.639Z,0.003,7.774,0,2026-04-01 14:44:04,17.75,636.9,0.0,16.0,89.0,3.0,2026-09-25T16:40:02.644Z,1.0,2026-09-25T16:40:02.641Z,4.7,2026-09-25T16:40:02.642Z,3.6,8,6,-999,0,0,0,2026-09-25T16:40:02.592Z,53.8,2026-09-25T16:40:02.494Z,151.2,2026-09-25T16:40:02.590Z,55.6,1790354403804947,108595,2026-09-25T16:40:01.697Z,948.0,,,,0,,,1,2026-09-25T16:40:02.592Z,53.1,16.553,0.01,99,31.1,0.0,0,1198652463,2026-09-25T16:40:02.493Z,152.7,5.252,0.014,1,2026-09-25T16:40:01.697Z,948.7,,,,,,,,,,,,,,,,,,,191,2162.37,2026-09-25T16:40:02.590Z,55.1,0,1500,0,0,2026-09-25T16:40:02.591Z,54.4,1508,1487,1528,1494,255,2026-09-25T16:40:02.494Z,151.7,0.0,0.0,0.0,0.0,0.0,2026-09-25T16:40:02.493Z,152.2,2026-09-25T16:40:01.697Z,948.3,2026-09-25T16:40:02.301Z,344.6,2026-09-25T16:40:02.300Z,345.0,2026-09-25T16:40:02.300Z,345.5,2026-09-25T16:40:01.698Z,947.7
2026-09-25T16:40:02.701Z,2026-09-25T16:40:04.808Z,3.85,77,False,POSHOLD,1,0,-1.402028,1.08862,-168.042792,0.045837,-0.020626,-0.035523,39.0187668,-104.8934908,2162.37,0.073,0.0,0.0,0.0,191.96,0.0,0.009,39.0187668,-104.8934908,2166.46,0.01,251.56,31,6,0.7,1.36,0.002,0.009,0.009,0,0.098066,0.049033,-9.80665,0.0,0.0,0.0,-222,10,450,16.561,0.0,0,99,,1000,1000,1000,1000,0.023,0.022,0.023,0,0,0,831,0.0179,0.0007,0.0018,0.0052,790.718,45.14,-180.0,0.0,0.0,2026-09-25T16:40:02.689Z,0.002,13.937,0,2026-04-01 14:44:04,17.75,686.9,0.0,16.0,89.0,3.0,2026-09-25T16:40:02.644Z,57.1,2026-09-25T16:40:02.696Z,6.0,2026-09-25T16:40:02.696Z,5.1,7,5,-999,0,0,0,2026-09-25T16:40:02.692Z,10.0,2026-09-25T16:40:02.694Z,7.3,2026-09-25T16:40:02.690Z,11.7,1790354404804922,109595,2026-09-25T16:40:02.701Z,0.8,,,,0,,,1,2026-09-25T16:40:02.692Z,9.3,16.561,0.0,99,31.4,0.0,0,1198652463,2026-09-25T16:40:02.693Z,8.8,5.257,0.014,1,2026-09-25T16:40:02.700Z,1.7,,,,,,,,,,,,,,,,,,,191,2162.37,2026-09-25T16:40:02.690Z,11.2,0,1500,0,0,2026-09-25T16:40:02.691Z,10.5,1508,1487,1528,1494,255,2026-09-25T16:40:02.694Z,7.8,0.0,0.0,0.0,0.0,0.0,2026-09-25T16:40:02.693Z,8.3,2026-09-25T16:40:02.700Z,1.3,2026-09-25T16:40:02.301Z,400.7,2026-09-25T16:40:02.300Z,401.2,2026-09-25T16:40:02.300Z,401.6,2026-09-25T16:40:02.701Z,0.3
2026-09-25T16:40:02.745Z,2026-09-25T16:40:04.852Z,3.9,78,False,POSHOLD,1,0,-1.401455,1.088047,-168.043938,0.001719,-0.003438,-0.002865,39.0187668,-104.8934908,2162.37,0.073,0.0,0.0,0.0,191.96,0.0,0.009,39.0187668,-104.8934908,2166.46,0.01,251.56,31,6,0.7,1.36,0.002,0.009,0.009,0,0.098066,0.05884,-9.80665,0.0,0.0,0.0,-222,9,451,16.561,0.0,0,99,,1000,1000,1000,1000,0.023,0.022,0.023,0,0,0,831,0.0179,0.0007,0.0018,0.0052,790.718,45.14,-180.0,0.0,0.0,2026-09-25T16:40:02.739Z,0.002,7.267,0,2026-04-01 14:44:04,17.75,736.9,0.0,16.0,89.0,3.0,2026-09-25T16:40:02.644Z,100.4,2026-09-25T16:40:02.741Z,4.1,2026-09-25T16:40:02.742Z,3.1,7,5,-999,0,0,0,2026-09-25T16:40:02.692Z,53.2,2026-09-25T16:40:02.694Z,50.6,2026-09-25T16:40:02.690Z,55.0,1790354404804922,109595,2026-09-25T16:40:02.701Z,44.1,,,,0,,,1,2026-09-25T16:40:02.692Z,52.6,16.561,0.0,99,31.4,0.0,0,1198652463,2026-09-25T16:40:02.693Z,52.1,5.257,0.014,1,2026-09-25T16:40:02.700Z,45.0,,,,,,,,,,,,,,,,,,,191,2162.37,2026-09-25T16:40:02.690Z,54.5,0,1500,0,0,2026-09-25T16:40:02.691Z,53.8,1508,1487,1528,1494,255,2026-09-25T16:40:02.694Z,51.1,0.0,0.0,0.0,0.0,0.0,2026-09-25T16:40:02.693Z,51.6,2026-09-25T16:40:02.700Z,44.6,2026-09-25T16:40:02.301Z,444.0,2026-09-25T16:40:02.300Z,444.5,2026-09-25T16:40:02.300Z,444.9,2026-09-25T16:40:02.701Z,43.6
2026-09-25T16:40:02.799Z,2026-09-25T16:40:04.906Z,3.95,79,False,POSHOLD,1,0,-1.400309,1.088047,-168.045657,0.012605,0.022345,0.002292,39.0187668,-104.8934908,2162.37,0.075,0.0,0.0,0.0,191.96,0.0,0.009,39.0187668,-104.8934908,2166.46,0.01,251.56,31,6,0.7,1.36,0.003,0.01,0.009,0,0.098066,0.05884,-9.816457,0.0,0.0,0.0,-222,9,451,16.546,0.01,0,99,,1000,1000,1000,1000,0.022,0.021,0.021,0,0,0,831,0.0037,0.0029,0.0081,0.0129,790.687,45.14,-180.0,0.0,0.0,2026-09-25T16:40:02.789Z,0.002,11.678,0,2026-04-01 14:44:04,17.75,786.9,0.0,16.0,89.0,3.0,2026-09-25T16:40:02.644Z,154.9,2026-09-25T16:40:02.794Z,5.5,2026-09-25T16:40:02.795Z,4.6,8,6,-999,0,0,0,2026-09-25T16:40:02.792Z,7.6,2026-09-25T16:40:02.694Z,105.1,2026-09-25T16:40:02.790Z,9.4,1790354404804922,109595,2026-09-25T16:40:02.701Z,98.6,,,,0,,,1,2026-09-25T16:40:02.792Z,6.9,16.561,0.0,99,31.4,0.0,0,1198652463,2026-09-25T16:40:02.693Z,106.6,5.257,0.014,1,2026-09-25T16:40:02.700Z,99.5,,,,,,,,,,,,,,,,,,,191,2162.37,2026-09-25T16:40:02.790Z,8.9,0,1500,0,0,2026-09-25T16:40:02.791Z,8.2,1508,1487,1528,1494,255,2026-09-25T16:40:02.694Z,105.5,0.0,0.0,0.0,0.0,0.0,2026-09-25T16:40:02.693Z,106.1,2026-09-25T16:40:02.700Z,99.0,2026-09-25T16:40:02.799Z,0.3,2026-09-25T16:40:02.798Z,0.8,2026-09-25T16:40:02.798Z,1.3,2026-09-25T16:40:02.701Z,98.1
2026-09-25T16:40:02.845Z,2026-09-25T16:40:04.952Z,4.0,80,False,POSHOLD,1,0,-1.399736,1.087474,-168.046802,-0.0,-0.021199,-0.014897,39.0187668,-104.8934908,2162.37,0.075,0.0,0.0,0.0,191.96,0.0,0.009,39.0187668,-104.8934908,2166.46,0.01,251.56,31,6,0.7,1.36,0.003,0.01,0.009,0,0.08826,0.05884,-9.816457,0.0,0.0,0.0,-222,9,450,16.546,0.01,0,99,,1000,1000,1000,1000,0.022,0.021,0.021,0,0,0,831,0.0037,0.0029,0.0081,0.0129,790.687,45.14,-180.0,0.0,0.0,2026-09-25T16:40:02.839Z,0.003,7.237,0,2026-04-01 14:44:04,17.75,836.9,0.0,16.0,89.0,3.0,2026-09-25T16:40:02.644Z,200.4,2026-09-25T16:40:02.841Z,4.1,2026-09-25T16:40:02.842Z,3.1,8,6,-999,0,0,0,2026-09-25T16:40:02.792Z,53.1,2026-09-25T16:40:02.694Z,150.6,2026-09-25T16:40:02.790Z,54.9,1790354404804922,109595,2026-09-25T16:40:02.701Z,144.1,,,,0,,,1,2026-09-25T16:40:02.792Z,52.4,16.561,0.0,99,31.4,0.0,0,1198652463,2026-09-25T16:40:02.693Z,152.1,5.257,0.014,1,2026-09-25T16:40:02.700Z,145.0,,,,,,,,,,,,,,,,,,,191,2162.37,2026-09-25T16:40:02.790Z,54.4,0,1500,0,0,2026-09-25T16:40:02.791Z,53.7,1508,1487,1528,1494,255,2026-09-25T16:40:02.694Z,151.1,0.0,0.0,0.0,0.0,0.0,2026-09-25T16:40:02.693Z,151.6,2026-09-25T16:40:02.700Z,144.5,2026-09-25T16:40:02.799Z,45.9,2026-09-25T16:40:02.798Z,46.3,2026-09-25T16:40:02.798Z,46.8,2026-09-25T16:40:02.701Z,143.6
2026-09-25T16:40:02.900Z,2026-09-25T16:40:05.007Z,4.05,81,False,POSHOLD,1,0,-1.399736,1.086328,-168.049667,-0.007448,-0.033232,-0.011459,39.0187668,-104.8934908,2162.37,0.077,0.0,0.0,0.0,191.96,0.0,0.009,39.0187668,-104.8934909,2166.45,0.01,264.8,31,6,0.7,1.36,0.004,0.01,0.009,0,0.098066,0.05884,-9.816457,0.0,0.0,0.0,-222,9,450,16.558,0.0,0,99,,1000,1000,1000,1000,0.022,0.021,0.021,0,0,0,831,0.0037,0.0029,0.0081,0.0129,790.687,45.14,-180.0,0.0,0.0,2026-09-25T16:40:02.889Z,0.002,12.198,0,2026-04-01 14:44:04,17.75,886.9,0.0,16.0,89.0,3.0,2026-09-25T16:40:02.644Z,255.3,2026-09-25T16:40:02.896Z,4.1,2026-09-25T16:40:02.896Z,3.2,7,5,-999,0,0,0,2026-09-25T16:40:02.892Z,8.1,2026-09-25T16:40:02.894Z,5.4,2026-09-25T16:40:02.890Z,9.8,1790354404804922,109595,2026-09-25T16:40:02.701Z,199.0,,,,0,,,1,2026-09-25T16:40:02.892Z,7.4,16.558,0.0,99,31.2,0.0,0,1198652463,2026-09-25T16:40:02.893Z,6.9,5.257,0.014,1,2026-09-25T16:40:02.700Z,199.9,,,,,,,,,,,,,,,,,,,191,2162.37,2026-09-25T16:40:02.890Z,9.3,0,1500,0,0,2026-09-25T16:40:02.891Z,8.7,1508,1487,1528,1494,255,2026-09-25T16:40:02.894Z,5.9,0.0,0.0,0.0,0.0,0.0,2026-09-25T16:40:02.893Z,6.4,2026-09-25T16:40:02.700Z,199.5,2026-09-25T16:40:02.799Z,100.8,2026-09-25T16:40:02.798Z,101.2,2026-09-25T16:40:02.798Z,101.7,2026-09-25T16:40:02.701Z,198.5
2026-09-25T16:40:02.945Z,2026-09-25T16:40:05.052Z,4.1,82,False,POSHOLD,1,0,-1.39859,1.086328,-168.051959,0.007448,-0.005157,-0.02521,39.0187668,-104.8934908,2162.37,0.077,0.0,0.0,0.0,191.96,0.0,0.009,39.0187668,-104.8934909,2166.45,0.01,264.8,31,6,0.7,1.36,0.004,0.01,0.009,0,0.098066,0.068647,-9.80665,0.0,0.0,0.0,-223,9,451,16.558,0.0,0,99,,1000,1000,1000,1000,0.022,0.021,0.021,0,0,0,831,0.0037,0.0029,0.0081,0.0129,790.687,45.14,-180.0,0.0,0.0,2026-09-25T16:40:02.939Z,0.002,7.229,0,2026-04-01 14:44:04,17.75,936.9,0.0,16.0,89.0,3.0,2026-09-25T16:40:02.644Z,300.4,2026-09-25T16:40:02.941Z,4.0,2026-09-25T16:40:02.942Z,3.1,7,5,-999,0,0,0,2026-09-25T16:40:02.892Z,53.1,2026-09-25T16:40:02.894Z,50.5,2026-09-25T16:40:02.890Z,54.9,1790354404804922,109595,2026-09-25T16:40:02.701Z,244.1,,,,0,,,1,2026-09-25T16:40:02.892Z,52.5,16.558,0.0,99,31.2,0.0,0,1198652463,2026-09-25T16:40:02.893Z,52.0,5.257,0.014,1,2026-09-25T16:40:02.700Z,245.0,,,,,,,,,,,,,,,,,,,191,2162.37,2026-09-25T16:40:02.890Z,54.4,0,1500,0,0,2026-09-25T16:40:02.891Z,53.7,1508,1487,1528,1494,255,2026-09-25T16:40:02.894Z,51.0,0.0,0.0,0.0,0.0,0.0,2026-09-25T16:40:02.893Z,51.5,2026-09-25T16:40:02.700Z,244.5,2026-09-25T16:40:02.799Z,145.8,2026-09-25T16:40:02.798Z,146.3,2026-09-25T16:40:02.798Z,146.7,2026-09-25T16:40:02.701Z,243.6
2026-09-25T16:40:02.998Z,2026-09-25T16:40:05.105Z,4.15,83,False,POSHOLD,1,0,-1.398017,1.086901,-168.054251,0.012032,0.001719,0.00974,39.0187668,-104.8934908,2162.38,0.08,0.0,0.0,0.0,191.95,0.0,0.009,39.0187668,-104.8934909,2166.45,0.01,264.8,31,6,0.7,1.36,0.005,0.011,0.01,0,0.098066,0.05884,-9.816457,0.0,0.0,0.0,-223,9,451,16.56,0.01,0,99,,1000,1000,1000,1000,0.022,0.021,0.021,0,0,0,831,0.0037,0.0029,0.0081,0.0129,790.687,45.14,-180.0,0.0,0.0,2026-09-25T16:40:02.989Z,0.003,10.096,0,2026-04-01 14:44:04,17.75,986.9,0.0,16.0,89.0,3.0,2026-09-25T16:40:02.644Z,353.3,2026-09-25T16:40:02.994Z,4.1,2026-09-25T16:40:02.995Z,3.2,8,6,-999,0,0,0,2026-09-25T16:40:02.992Z,6.1,2026-09-25T16:40:02.894Z,103.4,2026-09-25T16:40:02.990Z,7.9,1790354404804922,109595,2026-09-25T16:40:02.701Z,297.0,,,,0,,,1,2026-09-25T16:40:02.992Z,5.5,16.558,0.0,99,31.2,0.0,0,1198652463,2026-09-25T16:40:02.893Z,104.9,5.257,0.014,1,2026-09-25T16:40:02.700Z,297.9,,,,,,,,,,,,,,,,,,,191,2162.38,2026-09-25T16:40:02.990Z,7.4,0,1500,0,0,2026-09-25T16:40:02.991Z,6.7,1508,1487,1528,1494,255,2026-09-25T16:40:02.894Z,103.9,0.0,0.0,0.0,0.0,0.0,2026-09-25T16:40:02.893Z,104.4,2026-09-25T16:40:02.700Z,297.5,2026-09-25T16:40:02.799Z,198.8,2026-09-25T16:40:02.798Z,199.2,2026-09-25T16:40:02.798Z,199.7,2026-09-25T16:40:02.701Z,296.5
2026-09-25T16:40:03.048Z,2026-09-25T16:40:05.155Z,4.2,84,False,POSHOLD,1,0,-1.396871,1.086328,-168.056543,0.004584,-0.00573,0.014324,39.0187668,-104.8934908,2162.38,0.08,0.0,0.0,0.0,191.95,0.0,0.009,39.0187668,-104.8934909,2166.45,0.01,264.8,31,6,0.7,1.36,0.005,0.011,0.01,0,0.098066,0.05884,-9.80665,0.0,0.0,0.0,-221,9,450,16.56,0.01,0,99,,1000,1000,1000,1000,0.022,0.021,0.021,0,0,0,831,0.0037,0.0029,0.0081,0.0129,790.687,45.14,-180.0,0.0,0.0,2026-09-25T16:40:03.039Z,0.002,11.074,0,2026-04-01 14:44:05,17.75,-9.3,0.0,16.0,89.0,3.0,2026-09-25T16:40:02.644Z,404.2,2026-09-25T16:40:03.041Z,7.9,2026-09-25T16:40:03.042Z,6.9,8,6,-999,0,0,0,2026-09-25T16:40:02.992Z,57.0,2026-09-25T16:40:02.894Z,154.3,2026-09-25T16:40:02.990Z,58.8,1790354404804922,109595,2026-09-25T16:40:02.701Z,347.9,,,,0,,,1,2026-09-25T16:40:02.992Z,56.4,16.558,0.0,99,31.2,0.0,0,1198652463,2026-09-25T16:40:02.893Z,155.8,5.257,0.014,1,2026-09-25T16:40:02.700Z,348.8,,,,,,,,,,,,,,,,,,,191,2162.38,2026-09-25T16:40:02.990Z,58.3,0,1500,0,0,2026-09-25T16:40:02.991Z,57.6,1508,1487,1528,1494,255,2026-09-25T16:40:02.894Z,154.8,0.0,0.0,0.0,0.0,0.0,2026-09-25T16:40:02.893Z,155.3,2026-09-25T16:40:02.700Z,348.4,2026-09-25T16:40:02.799Z,249.7,2026-09-25T16:40:02.798Z,250.1,2026-09-25T16:40:02.798Z,250.6,2026-09-25T16:40:02.701Z,347.4
2026-09-25T16:40:03.100Z,2026-09-25T16:40:05.207Z,4.25,85,False,POSHOLD,1,0,-1.396298,1.086328,-168.058835,-0.006303,-0.007448,0.009167,39.0187668,-104.8934908,2162.38,0.083,0.0,0.0,-0.01,191.95,0.0,0.009,39.0187668,-104.8934909,2166.45,0.01,265.6,31,6,0.7,1.36,0.006,0.012,0.01,0,0.08826,0.05884,-9.826263,0.0,0.0,0.0,-221,9,450,16.549,0.01,0,99,,1000,1000,1000,1000,0.022,0.021,0.021,0,0,0,831,0.0037,0.0029,0.0081,0.0129,790.687,45.14,-180.0,0.0,0.0,2026-09-25T16:40:03.089Z,0.003,12.155,0,2026-04-01 14:44:05,17.75,40.7,0.0,16.0,89.0,3.0,2026-09-25T16:40:02.644Z,455.3,2026-09-25T16:40:03.096Z,4.1,2026-09-25T16:40:03.096Z,3.2,6,6,-999,0,0,0,2026-09-25T16:40:03.092Z,8.1,2026-09-25T16:40:03.094Z,5.4,2026-09-25T16:40:03.090Z,9.8,1790354404804922,109595,2026-09-25T16:40:02.701Z,399.0,,,,0,,,1,2026-09-25T16:40:03.092Z,7.4,16.549,0.01,99,31.3,0.0,0,1198652463,2026-09-25T16:40:03.093Z,6.9,5.257,0.014,1,2026-09-25T16:40:02.700Z,399.9,,,,,,,,,,,,,,,,,,,191,2162.38,2026-09-25T16:40:03.090Z,9.3,0,1500,0,0,2026-09-25T16:40:03.091Z,8.6,1508,1487,1528,1494,255,2026-09-25T16:40:03.094Z,5.9,0.0,0.0,0.0,0.0,0.0,2026-09-25T16:40:03.093Z,6.4,2026-09-25T16:40:02.700Z,399.4,2026-09-25T16:40:02.799Z,300.7,2026-09-25T16:40:02.798Z,301.2,2026-09-25T16:40:02.798Z,301.7,2026-09-25T16:40:02.701Z,398.5
2026-09-25T16:40:03.145Z,2026-09-25T16:40:05.252Z,4.3,86,False,POSHOLD,1,0,-1.395152,1.086328,-168.061126,0.006875,0.013178,-0.016616,39.0187668,-104.8934908,2162.38,0.083,0.0,0.0,-0.01,191.95,0.0,0.009,39.0187668,-104.8934909,2166.45,0.01,265.6,31,6,0.7,1.36,0.006,0.012,0.01,0,0.107873,0.05884,-9.816457,0.0,0.0,0.0,-222,9,450,16.549,0.01,0,99,,1000,1000,1000,1000,0.022,0.021,0.021,0,0,0,831,0.0037,0.0029,0.0081,0.0129,790.687,45.14,-180.0,0.0,0.0,2026-09-25T16:40:03.139Z,0.003,7.695,0,2026-04-01 14:44:05,17.75,90.7,0.0,16.0,89.0,3.0,2026-09-25T16:40:02.644Z,500.9,2026-09-25T16:40:03.141Z,4.1,2026-09-25T16:40:03.142Z,3.2,6,6,-999,0,0,0,2026-09-25T16:40:03.092Z,53.7,2026-09-25T16:40:03.094Z,51.0,2026-09-25T16:40:03.090Z,55.4,1790354404804922,109595,2026-09-25T16:40:02.701Z,444.6,,,,0,,,1,2026-09-25T16:40:03.092Z,53.0,16.549,0.01,99,31.3,0.0,0,1198652463,2026-09-25T16:40:03.093Z,52.6,5.257,0.014,1,2026-09-25T16:40:02.700Z,445.5,,,,,,,,,,,,,,,,,,,191,2162.38,2026-09-25T16:40:03.090Z,54.9,0,1500,0,0,2026-09-25T16:40:03.091Z,54.3,1508,1487,1528,1494,255,2026-09-25T16:40:03.094Z,51.5,0.0,0.0,0.0,0.0,0.0,2026-09-25T16:40:03.093Z,52.0,2026-09-25T16:40:02.700Z,445.1,2026-09-25T16:40:02.799Z,346.4,2026-09-25T16:40:02.798Z,346.8,2026-09-25T16:40:02.798Z,347.3,2026-09-25T16:40:02.701Z,444.1
2026-09-25T16:40:03.198Z,2026-09-25T16:40:05.305Z,4.35,87,False,POSHOLD,1,0,-1.395152,1.086328,-168.062845,-0.002865,0.028075,-0.018908,39.0187668,-104.8934908,2162.38,0.085,0.0,0.0,-0.01,191.94,0.0,0.009,39.0187668,-104.8934909,2166.45,0.01,265.6,31,6,0.7,1.36,0.007,0.013,0.01,0,0.098066,0.068647,-9.816457,0.0,0.0,0.0,-222,9,450,16.557,0.0,0,99,,1000,1000,1000,1000,0.022,0.021,0.021,0,0,0,831,0.0037,0.0029,0.0081,0.0129,790.687,45.14,-180.0,0.0,0.0,2026-09-25T16:40:03.189Z,0.002,10.113,0,2026-04-01 14:44:05,17.75,140.7,0.0,16.0,89.0,3.0,2026-09-25T16:40:02.644Z,553.3,2026-09-25T16:40:03.194Z,4.1,2026-09-25T16:40:03.195Z,3.2,7,6,-999,0,0,0,2026-09-25T16:40:03.192Z,6.1,2026-09-25T16:40:03.094Z,103.4,2026-09-25T16:40:03.190Z,7.9,1790354404804922,109595,2026-09-25T16:40:02.701Z,497.0,,,,0,,,1,2026-09-25T16:40:03.192Z,5.5,16.549,0.01,99,31.3,0.0,0,1198652463,2026-09-25T16:40:03.093Z,105.0,5.257,0.014,1,2026-09-25T16:40:02.700Z,497.9,,,,,,,,,,,,,,,,,,,191,2162.38,2026-09-25T16:40:03.190Z,7.4,0,1500,0,0,2026-09-25T16:40:03.191Z,6.7,1508,1487,1528,1494,255,2026-09-25T16:40:03.094Z,103.9,0.0,0.0,0.0,0.0,0.0,2026-09-25T16:40:03.093Z,104.4,2026-09-25T16:40:02.700Z,497.5,2026-09-25T16:40:02.799Z,398.8,2026-09-25T16:40:02.798Z,399.2,2026-09-25T16:40:02.798Z,399.7,2026-09-25T16:40:02.701Z,496.5
2026-09-25T16:40:03.245Z,2026-09-25T16:40:05.352Z,4.4,88,False,POSHOLD,1,0,-1.394006,1.085182,-168.064564,0.020626,-0.013751,0.00974,39.0187668,-104.8934908,2162.38,0.085,0.0,0.0,-0.01,191.94,0.0,0.009,39.0187668,-104.8934909,2166.45,0.01,265.6,31,6,0.7,1.36,0.007,0.013,0.01,0,0.098066,0.05884,-9.816457,0.0,0.0,0.0,-222,9,450,16.557,0.0,0,99,,1000,1000,1000,1000,0.022,0.021,0.021,0,0,0,831,0.0037,0.0029,0.0081,0.0129,790.687,45.14,-180.0,0.0,0.0,2026-09-25T16:40:03.239Z,0.003,7.266,0,2026-04-01 14:44:05,17.75,190.7,0.0,16.0,89.0,3.0,2026-09-25T16:40:02.644Z,600.4,2026-09-25T16:40:03.241Z,4.0,2026-09-25T16:40:03.242Z,3.1,7,6,-999,0,0,0,2026-09-25T16:40:03.192Z,53.2,2026-09-25T16:40:03.094Z,150.6,2026-09-25T16:40:03.190Z,55.0,1790354404804922,109595,2026-09-25T16:40:02.701Z,544.1,,,,0,,,1,2026-09-25T16:40:03.192Z,52.6,16.549,0.01,99,31.3,0.0,0,1198652463,2026-09-25T16:40:03.093Z,152.1,5.257,0.014,1,2026-09-25T16:40:02.700Z,545.0,,,,,,,,,,,,,,,,,,,191,2162.38,2026-09-25T16:40:03.190Z,54.5,0,1500,0,0,2026-09-25T16:40:03.191Z,53.8,1508,1487,1528,1494,255,2026-09-25T16:40:03.094Z,151.0,0.0,0.0,0.0,0.0,0.0,2026-09-25T16:40:03.093Z,151.6,2026-09-25T16:40:02.700Z,544.6,2026-09-25T16:40:02.799Z,445.9,2026-09-25T16:40:02.798Z,446.3,2026-09-25T16:40:02.798Z,446.8,2026-09-25T16:40:02.701Z,543.6
2026-09-25T16:40:03.301Z,2026-09-25T16:40:05.408Z,4.45,89,False,POSHOLD,1,0,-1.39286,1.085182,-168.065137,0.029794,0.014324,-0.008594,39.0187668,-104.8934908,2162.38,0.088,0.0,0.0,-0.01,191.94,0.0,0.009,39.0187668,-104.8934909,2166.45,0.0,249.44,31,6,0.7,1.36,0.008,0.014,0.011,0,0.098066,0.068647,-9.816457,0.0,0.0,0.0,-222,9,450,16.553,0.01,0,99,,1000,1000,1000,1000,0.021,0.023,0.023,0,0,0,831,0.0078,0.0015,0.0192,0.012,790.696,45.14,-180.0,0.0,0.0,2026-09-25T16:40:03.289Z,0.003,13.552,0,2026-04-01 14:44:05,17.75,240.7,0.0,16.0,89.0,3.0,2026-09-25T16:40:02.644Z,656.7,2026-09-25T16:40:03.296Z,5.5,2026-09-25T16:40:03.297Z,4.6,8,6,-999,0,0,0,2026-09-25T16:40:03.292Z,9.5,2026-09-25T16:40:03.294Z,6.8,2026-09-25T16:40:03.290Z,11.3,1790354404804922,109595,2026-09-25T16:40:02.701Z,600.5,,,,0,,,1,2026-09-25T16:40:03.292Z,8.8,16.553,0.01,99,31.1,0.0,0,1198652463,2026-09-25T16:40:03.293Z,8.4,5.257,0.014,1,2026-09-25T16:40:02.700Z,601.4,,,,,,,,,,,,,,,,,,,191,2162.38,2026-09-25T16:40:03.290Z,10.8,0,1500,0,0,2026-09-25T16:40:03.291Z,10.1,1508,1487,1528,1494,255,2026-09-25T16:40:03.294Z,7.3,0.0,0.0,0.0,0.0,0.0,2026-09-25T16:40:03.293Z,7.8,2026-09-25T16:40:02.700Z,600.9,2026-09-25T16:40:03.301Z,0.4,2026-09-25T16:40:03.300Z,0.9,2026-09-25T16:40:03.300Z,1.3,2026-09-25T16:40:02.701Z,600.0
2026-09-25T16:40:03.345Z,2026-09-25T16:40:05.452Z,4.5,90,False,POSHOLD,1,0,-1.389996,1.085755,-168.066283,0.04641,0.008594,-0.007448,39.0187668,-104.8934908,2162.38,0.088,0.0,0.0,-0.01,191.94,0.0,0.009,39.0187668,-104.8934909,2166.45,0.0,249.44,31,6,0.7,1.36,0.008,0.014,0.011,0,0.098066,0.05884,-9.80665,0.0,0.0,0.0,-223,9,451,16.553,0.01,0,99,,1000,1000,1000,1000,0.021,0.023,0.023,0,0,0,831,0.0078,0.0015,0.0192,0.012,790.696,45.14,-180.0,0.0,0.0,2026-09-25T16:40:03.339Z,0.002,7.235,0,2026-04-01 14:44:05,17.75,290.7,0.0,16.0,89.0,3.0,2026-09-25T16:40:02.644Z,700.4,2026-09-25T16:40:03.341Z,4.1,2026-09-25T16:40:03.342Z,3.1,8,6,-999,0,0,0,2026-09-25T16:40:03.292Z,53.1,2026-09-25T16:40:03.294Z,50.5,2026-09-25T16:40:03.290Z,54.9,1790354404804922,109595,2026-09-25T16:40:02.701Z,644.1,,,,0,,,1,2026-09-25T16:40:03.292Z,52.4,16.553,0.01,99,31.1,0.0,0,1198652463,2026-09-25T16:40:03.293Z,52.0,5.257,0.014,1,2026-09-25T16:40:02.700Z,645.0,,,,,,,,,,,,,,,,,,,191,2162.38,2026-09-25T16:40:03.290Z,54.4,0,1500,0,0,2026-09-25T16:40:03.291Z,53.7,1508,1487,1528,1494,255,2026-09-25T16:40:03.294Z,51.0,0.0,0.0,0.0,0.0,0.0,2026-09-25T16:40:03.293Z,51.5,2026-09-25T16:40:02.700Z,644.5,2026-09-25T16:40:03.301Z,44.0,2026-09-25T16:40:03.300Z,44.5,2026-09-25T16:40:03.300Z,44.9,2026-09-25T16:40:02.701Z,643.6
