time_utc,time_gps_utc,time_local,elapsed_s,sample_n,armed,flight_mode,mission_seq,wp_dist_m,roll_deg,pitch_deg,yaw_deg,roll_rate_deg_s,pitch_rate_deg_s,yaw_rate_deg_s,lat_deg,lon_deg,alt_msl_m,alt_rel_m,vel_n_m_s,vel_e_m_s,vel_d_m_s,heading_deg,north_m,east_m,gps_lat_deg,gps_lon_deg,gps_alt_m,gps_speed_m_s,gps_course_deg,gps_sats,gps_fix_type,gps_hdop,gps_vdop,groundspeed_m_s,airspeed_m_s,climb_m_s,throttle_pct,acc_x_m_s2,acc_y_m_s2,acc_z_m_s2,gyro_x_rad_s,gyro_y_rad_s,gyro_z_rad_s,mag_x_mgauss,mag_y_mgauss,mag_z_mgauss,batt_voltage_v,batt_current_a,batt_consumed_mah,batt_remaining_pct,batt_temp_c,motor1_us,motor2_us,motor3_us,motor4_us,vib_x_m_s2,vib_y_m_s2,vib_z_m_s2,clip_0,clip_1,clip_2,ekf_flags,ekf_vel_var,ekf_pos_horiz_var,ekf_pos_vert_var,ekf_compass_var,baro_press_hpa,baro_temp_c,ap_wind_dir_deg,ap_wind_speed_m_s,ap_wind_speed_z_m_s,Sched_UTC,Sched_Error_ms,Cycle_ms,Slots_Skipped,Temp_Age_ms,HB_Armed,HB_CustomMode,HB_BaseMode,HB_SystemStatus,HB_rx_UTC,HB_Age_ms,ATT_rx_UTC,ATT_Age_ms,IMU_rx_UTC,IMU_Age_ms,RIMU_Xacc,RIMU_Yacc,RIMU_Zacc,RIMU_Xgyro,RIMU_Ygyro,RIMU_Zgyro,RIMU_rx_UTC,RIMU_Age_ms,GPS_rx_UTC,GPS_Age_ms,POS_rx_UTC,POS_Age_ms,SYST_UnixUsec,SYST_BootMs,SYST_rx_UTC,SYST_Age_ms,BAT_Cell2_V,BAT_Cell3_V,BAT_Cell4_V,BAT_Energy_hJ,BAT_Temp_cdegC,BAT_TimeRemaining_s,BAT_ChargeState,BAT_rx_UTC,BAT_Age_ms,SYS_Voltage_V,SYS_Current_A,SYS_BatteryRemaining_pct,SYS_Load_pct,SYS_DropRateComm,SYS_ErrorsComm,SYS_SensorsHealth,SYS_rx_UTC,SYS_Age_ms,PWR_Vcc_V,PWR_Vservo_V,PWR_Flags,PWR_rx_UTC,PWR_Age_ms,ESC1_RPM,ESC2_RPM,ESC3_RPM,ESC4_RPM,ESC1_V,ESC2_V,ESC3_V,ESC4_V,ESC1_A,ESC2_A,ESC3_A,ESC4_A,ESC1_degC,ESC2_degC,ESC3_degC,ESC4_degC,ESC_rx_UTC,ESC_Age_ms,VFR_Heading_deg,VFR_Alt_m,VFR_rx_UTC,VFR_Age_ms,SRV5_us,SRV6_us,SRV7_us,SRV8_us,SRV_rx_UTC,SRV_Age_ms,RC1_us,RC2_us,RC3_us,RC4_us,RC_RSSI,RC_rx_UTC,RC_Age_ms,NAV_RollTarget_deg,NAV_PitchTarget_deg,NAV_AltError_m,NAV_AspdError_m_s,NAV_XtrackError_m,NAV_rx_UTC,NAV_Age_ms,MIS_rx_UTC,MIS_Age_ms,VIB_rx_UTC,VIB_Age_ms,EKF_rx_UTC,EKF_Age_ms,BARO_rx_UTC,BARO_Age_ms,WND_rx_UTC,WND_Age_ms
2026-09-29T16:43:14.766Z,2026-09-29T16:43:14.862Z,2026-09-29T10:43:14.862-06:00,0.0,0,False,,1,0,-1.643243,0.234913,-142.601747,0.01547,-0.003438,-0.032659,39.0187777,-104.8936053,2165.98,-2.331,0.0,0.0,0.0,217.4,0.0,0.0,39.0187777,-104.8936053,2165.89,0.01,164.05,31,6,0.72,1.28,0.003,0.003,-0.001,0,-0.039227,0.107873,-9.80665,0.002,0.0,0.0,20,-297,136,16.447,0.01,7,99,,1000,1000,1000,1000,0.022,0.023,0.024,0,0,0,831,0.0067,0.0021,0.0037,0.0056,784.965,46.1,-180.0,0.0,0.0,2026-09-29T16:43:14.722Z,0.041,45.369,0,-44.0,0,0,0,0,2026-09-29T16:43:14.754Z,12.5,2026-09-29T16:43:14.763Z,3.8,2026-09-29T16:43:14.763Z,3.2,-7,9,-998,1,0,0,2026-09-29T16:43:14.760Z,6.9,2026-09-29T16:43:14.762Z,4.8,2026-09-29T16:43:14.758Z,8.2,1790700194668356,1447467,2026-09-29T16:43:14.734Z,32.7,,,,4,,,1,2026-09-29T16:43:14.760Z,6.3,16.447,0.01,99,31.8,0.0,0,1198652463,2026-09-29T16:43:14.760Z,5.9,5.244,0.019,1,2026-09-29T16:43:14.730Z,36.5,,,,,,,,,,,,,,,,,,,217,2165.98,2026-09-29T16:43:14.759Z,7.8,0,0,0,0,2026-09-29T16:43:14.759Z,7.3,1508,1514,1529,1493,255,2026-09-29T16:43:14.761Z,5.2,-0.0,0.0,0.0,0.0,0.0,2026-09-29T16:43:14.761Z,5.6,2026-09-29T16:43:14.749Z,17.7,2026-09-29T16:43:14.752Z,14.3,2026-09-29T16:43:14.751Z,14.9,2026-09-29T16:43:14.750Z,16.6,2026-09-29T16:43:14.750Z,16.0
2026-09-29T16:43:14.772Z,2026-09-29T16:43:14.868Z,2026-09-29T10:43:14.868-06:00,0.05,1,False,,1,0,-1.643243,0.234913,-142.601747,0.01547,-0.003438,-0.032659,39.0187777,-104.8936053,2165.98,-2.331,0.0,0.0,0.0,217.4,0.0,0.0,39.0187777,-104.8936053,2165.89,0.01,164.05,31,6,0.72,1.28,0.003,0.003,-0.001,0,-0.039227,0.107873,-9.80665,0.002,0.0,0.0,20,-297,136,16.447,0.01,7,99,,1000,1000,1000,1000,0.022,0.023,0.024,0,0,0,831,0.0067,0.0021,0.0037,0.0056,784.965,46.1,-180.0,0.0,0.0,2026-09-29T16:43:14.772Z,0.004,1.466,0,6.0,0,0,0,0,2026-09-29T16:43:14.754Z,18.7,2026-09-29T16:43:14.763Z,10.0,2026-09-29T16:43:14.763Z,9.3,-7,9,-998,1,0,0,2026-09-29T16:43:14.760Z,13.0,2026-09-29T16:43:14.762Z,10.9,2026-09-29T16:43:14.758Z,14.3,1790700194668356,1447467,2026-09-29T16:43:14.734Z,38.8,,,,4,,,1,2026-09-29T16:43:14.760Z,12.5,16.447,0.01,99,31.8,0.0,0,1198652463,2026-09-29T16:43:14.760Z,12.1,5.244,0.019,1,2026-09-29T16:43:14.730Z,42.7,,,,,,,,,,,,,,,,,,,217,2165.98,2026-09-29T16:43:14.759Z,14.0,0,0,0,0,2026-09-29T16:43:14.759Z,13.5,1508,1514,1529,1493,255,2026-09-29T16:43:14.761Z,11.3,-0.0,0.0,0.0,0.0,0.0,2026-09-29T16:43:14.761Z,11.7,2026-09-29T16:43:14.749Z,23.9,2026-09-29T16:43:14.752Z,20.4,2026-09-29T16:43:14.751Z,21.1,2026-09-29T16:43:14.750Z,22.8,2026-09-29T16:43:14.750Z,22.1
2026-09-29T16:43:14.826Z,2026-09-29T16:43:14.922Z,2026-09-29T10:43:14.922-06:00,0.1,2,False,,1,0,-1.643816,0.235486,-142.60232,-0.006875,-0.002865,0.028648,39.0187777,-104.8936053,2165.98,-2.331,0.0,0.0,0.0,217.4,0.0,0.0,39.0187777,-104.8936053,2165.89,0.01,164.05,31,6,0.72,1.28,0.003,0.003,-0.001,0,-0.049033,0.098066,-9.816457,0.002,0.001,0.0,20,-297,136,16.447,0.01,7,99,,1000,1000,1000,1000,0.022,0.023,0.024,0,0,0,831,0.0067,0.0021,0.0037,0.0056,784.965,46.1,-180.0,0.0,0.0,2026-09-29T16:43:14.822Z,0.002,4.891,0,56.0,0,0,0,0,2026-09-29T16:43:14.754Z,72.1,2026-09-29T16:43:14.823Z,2.6,2026-09-29T16:43:14.824Z,2.0,-7,9,-998,1,0,0,2026-09-29T16:43:14.760Z,66.4,2026-09-29T16:43:14.762Z,64.4,2026-09-29T16:43:14.758Z,67.8,1790700194668356,1447467,2026-09-29T16:43:14.734Z,92.3,,,,4,,,1,2026-09-29T16:43:14.760Z,65.9,16.447,0.01,99,31.8,0.0,0,1198652463,2026-09-29T16:43:14.760Z,65.5,5.244,0.019,1,2026-09-29T16:43:14.730Z,96.1,,,,,,,,,,,,,,,,,,,217,2165.98,2026-09-29T16:43:14.759Z,67.4,0,0,0,0,2026-09-29T16:43:14.759Z,66.9,1508,1514,1529,1493,255,2026-09-29T16:43:14.761Z,64.7,-0.0,0.0,0.0,0.0,0.0,2026-09-29T16:43:14.761Z,65.2,2026-09-29T16:43:14.749Z,77.3,2026-09-29T16:43:14.752Z,73.9,2026-09-29T16:43:14.751Z,74.5,2026-09-29T16:43:14.750Z,76.2,2026-09-29T16:43:14.750Z,75.5
2026-09-29T16:43:14.878Z,2026-09-29T16:43:14.974Z,2026-09-29T10:43:14.974-06:00,0.15,3,False,,1,0,-1.643243,0.234913,-142.601747,0.022345,0.009167,0.020626,39.0187777,-104.8936053,2165.98,-2.333,0.0,0.0,0.0,217.4,0.0,0.0,39.0187777,-104.8936053,2165.89,0.01,164.05,31,6,0.72,1.28,0.004,0.004,-0.001,0,-0.039227,0.098066,-9.816457,0.002,0.0,0.0,20,-297,136,16.432,0.01,7,99,,1000,1000,1000,1000,0.022,0.023,0.024,0,0,0,831,0.0067,0.0021,0.0037,0.0056,784.965,46.1,-180.0,0.0,0.0,2026-09-29T16:43:14.872Z,0.002,6.978,0,106.0,0,0,0,0,2026-09-29T16:43:14.754Z,124.2,2026-09-29T16:43:14.876Z,2.6,2026-09-29T16:43:14.876Z,2.0,-6,10,-999,0,-1,0,2026-09-29T16:43:14.874Z,4.0,2026-09-29T16:43:14.762Z,116.5,2026-09-29T16:43:14.873Z,5.4,1790700194668356,1447467,2026-09-29T16:43:14.734Z,144.4,,,,4,,,1,2026-09-29T16:43:14.875Z,3.6,16.447,0.01,99,31.8,0.0,0,1198652463,2026-09-29T16:43:14.760Z,117.6,5.244,0.019,1,2026-09-29T16:43:14.730Z,148.2,,,,,,,,,,,,,,,,,,,217,2165.98,2026-09-29T16:43:14.873Z,5.0,0,0,0,0,2026-09-29T16:43:14.874Z,4.5,1508,1514,1529,1493,255,2026-09-29T16:43:14.761Z,116.8,-0.0,0.0,0.0,0.0,0.0,2026-09-29T16:43:14.761Z,117.3,2026-09-29T16:43:14.749Z,129.4,2026-09-29T16:43:14.752Z,126.0,2026-09-29T16:43:14.751Z,126.6,2026-09-29T16:43:14.750Z,128.3,2026-09-29T16:43:14.750Z,127.6
2026-09-29T16:43:14.926Z,2026-09-29T16:43:15.022Z,2026-09-29T10:43:15.022-06:00,0.2,4,False,,1,0,-1.644389,0.233194,-142.60232,-0.012032,-0.022345,0.00974,39.0187777,-104.8936053,2165.98,-2.333,0.0,0.0,0.0,217.4,0.0,0.0,39.0187777,-104.8936053,2165.89,0.01,164.05,31,6,0.72,1.28,0.004,0.004,-0.001,0,-0.02942,0.107873,-9.816457,0.002,0.0,0.0,20,-297,136,16.432,0.01,7,99,,1000,1000,1000,1000,0.022,0.023,0.024,0,0,0,831,0.0067,0.0021,0.0037,0.0056,784.965,46.1,-180.0,0.0,0.0,2026-09-29T16:43:14.922Z,0.002,4.837,0,156.0,0,0,0,0,2026-09-29T16:43:14.754Z,172.1,2026-09-29T16:43:14.923Z,2.6,2026-09-29T16:43:14.924Z,2.0,-6,10,-999,0,-1,0,2026-09-29T16:43:14.874Z,51.9,2026-09-29T16:43:14.762Z,164.3,2026-09-29T16:43:14.873Z,53.2,1790700194668356,1447467,2026-09-29T16:43:14.734Z,192.2,,,,4,,,1,2026-09-29T16:43:14.875Z,51.4,16.447,0.01,99,31.8,0.0,0,1198652463,2026-09-29T16:43:14.760Z,165.5,5.244,0.019,1,2026-09-29T16:43:14.730Z,196.1,,,,,,,,,,,,,,,,,,,217,2165.98,2026-09-29T16:43:14.873Z,52.8,0,0,0,0,2026-09-29T16:43:14.874Z,52.3,1508,1514,1529,1493,255,2026-09-29T16:43:14.761Z,164.7,-0.0,0.0,0.0,0.0,0.0,2026-09-29T16:43:14.761Z,165.1,2026-09-29T16:43:14.749Z,177.3,2026-09-29T16:43:14.752Z,173.8,2026-09-29T16:43:14.751Z,174.5,2026-09-29T16:43:14.750Z,176.2,2026-09-29T16:43:14.750Z,175.5
2026-09-29T16:43:14.979Z,2026-09-29T16:43:15.075Z,2026-09-29T10:43:15.075-06:00,0.25,5,False,,1,0,-1.645535,0.232048,-142.602893,0.02521,-0.006303,-0.002292,39.0187777,-104.8936053,2165.98,-2.332,0.0,0.0,0.0,217.4,0.0,0.0,39.0187777,-104.8936053,2165.89,0.03,178.21,31,6,0.72,1.28,0.005,0.005,-0.0,0,-0.039227,0.107873,-9.816457,0.002,0.0,0.0,20,-297,136,16.43,0.01,7,99,,1000,1000,1000,1000,0.022,0.023,0.024,0,0,0,831,0.0067,0.0021,0.0037,0.0056,784.965,46.1,-180.0,0.0,0.0,2026-09-29T16:43:14.972Z,0.002,8.427,0,206.0,0,0,0,0,2026-09-29T16:43:14.754Z,225.6,2026-09-29T16:43:14.977Z,2.6,2026-09-29T16:43:14.978Z,1.9,-7,10,-998,0,0,0,2026-09-29T16:43:14.974Z,5.4,2026-09-29T16:43:14.976Z,3.6,2026-09-29T16:43:14.973Z,6.7,1790700194668356,1447467,2026-09-29T16:43:14.734Z,245.7,,,,4,,,1,2026-09-29T16:43:14.975Z,4.9,16.43,0.01,99,32.0,0.0,0,1198652463,2026-09-29T16:43:14.975Z,4.6,5.244,0.019,1,2026-09-29T16:43:14.730Z,249.6,,,,,,,,,,,,,,,,,,,217,2165.98,2026-09-29T16:43:14.973Z,6.3,0,0,0,0,2026-09-29T16:43:14.974Z,5.8,1508,1514,1529,1493,255,2026-09-29T16:43:14.976Z,3.9,-0.0,0.0,0.0,0.0,0.0,2026-09-29T16:43:14.975Z,4.3,2026-09-29T16:43:14.749Z,230.8,2026-09-29T16:43:14.752Z,227.4,2026-09-29T16:43:14.751Z,228.0,2026-09-29T16:43:14.750Z,229.7,2026-09-29T16:43:14.750Z,229.0
2026-09-29T16:43:15.026Z,2026-09-29T16:43:15.122Z,2026-09-29T10:43:15.122-06:00,0.3,6,False,,1,0,-1.646108,0.231475,-142.602893,-0.014324,-0.018335,0.004011,39.0187777,-104.8936053,2165.98,-2.332,0.0,0.0,0.0,217.4,0.0,0.0,39.0187777,-104.8936053,2165.89,0.03,178.21,31,6,0.72,1.28,0.005,0.005,-0.0,0,-0.02942,0.098066,-9.816457,0.002,0.001,0.0,20,-297,136,16.43,0.01,7,99,,1000,1000,1000,1000,0.022,0.023,0.024,0,0,0,831,0.0067,0.0021,0.0037,0.0056,784.965,46.1,-180.0,0.0,0.0,2026-09-29T16:43:15.022Z,0.002,4.969,0,256.0,0,0,0,0,2026-09-29T16:43:14.754Z,272.2,2026-09-29T16:43:15.024Z,2.6,2026-09-29T16:43:15.024Z,2.0,-7,10,-998,0,0,0,2026-09-29T16:43:14.974Z,52.0,2026-09-29T16:43:14.976Z,50.2,2026-09-29T16:43:14.973Z,53.3,1790700194668356,1447467,2026-09-29T16:43:14.734Z,292.4,,,,4,,,1,2026-09-29T16:43:14.975Z,51.5,16.43,0.01,99,32.0,0.0,0,1198652463,2026-09-29T16:43:14.975Z,51.2,5.244,0.019,1,2026-09-29T16:43:14.730Z,296.2,,,,,,,,,,,,,,,,,,,217,2165.98,2026-09-29T16:43:14.973Z,52.9,0,0,0,0,2026-09-29T16:43:14.974Z,52.4,1508,1514,1529,1493,255,2026-09-29T16:43:14.976Z,50.5,-0.0,0.0,0.0,0.0,0.0,2026-09-29T16:43:14.975Z,50.9,2026-09-29T16:43:14.749Z,277.4,2026-09-29T16:43:14.752Z,274.0,2026-09-29T16:43:14.751Z,274.6,2026-09-29T16:43:14.750Z,276.3,2026-09-29T16:43:14.750Z,275.6
2026-09-29T16:43:15.078Z,2026-09-29T16:43:15.174Z,2026-09-29T10:43:15.174-06:00,0.35,7,False,,1,0,-1.647254,0.230329,-142.602893,-0.01547,-0.018335,0.004011,39.0187777,-104.8936053,2165.99,-2.329,0.0,0.0,0.0,217.4,0.0,0.0,39.0187777,-104.8936053,2165.89,0.03,178.21,31,6,0.72,1.28,0.005,0.005,0.0,0,-0.039227,0.098066,-9.816457,0.002,0.001,0.0,20,-296,136,16.43,0.02,7,99,,1000,1000,1000,1000,0.022,0.023,0.024,0,0,0,831,0.0067,0.0021,0.0037,0.0056,784.965,46.1,-180.0,0.0,0.0,2026-09-29T16:43:15.072Z,0.002,7.155,0,306.0,0,0,0,0,2026-09-29T16:43:14.754Z,324.4,2026-09-29T16:43:15.076Z,2.6,2026-09-29T16:43:15.076Z,2.0,-6,10,-999,0,0,0,2026-09-29T16:43:15.074Z,4.0,2026-09-29T16:43:14.976Z,102.4,2026-09-29T16:43:15.073Z,5.4,1790700194668356,1447467,2026-09-29T16:43:14.734Z,344.6,,,,4,,,1,2026-09-29T16:43:15.075Z,3.6,16.43,0.01,99,32.0,0.0,0,1198652463,2026-09-29T16:43:14.975Z,103.4,5.244,0.019,1,2026-09-29T16:43:14.730Z,348.4,,,,,,,,,,,,,,,,,,,217,2165.99,2026-09-29T16:43:15.073Z,5.0,0,0,0,0,2026-09-29T16:43:15.074Z,4.5,1508,1514,1529,1493,255,2026-09-29T16:43:14.976Z,102.7,-0.0,0.0,0.0,0.0,0.0,2026-09-29T16:43:14.975Z,103.1,2026-09-29T16:43:14.749Z,329.6,2026-09-29T16:43:14.752Z,326.2,2026-09-29T16:43:14.751Z,326.8,2026-09-29T16:43:14.750Z,328.5,2026-09-29T16:43:14.750Z,327.8
2026-09-29T16:43:15.126Z,2026-09-29T16:43:15.222Z,2026-09-29T10:43:15.222-06:00,0.4,8,False,,1,0,-1.648973,0.230902,-142.60232,-0.004584,0.017189,-0.003438,39.0187777,-104.8936053,2165.99,-2.329,0.0,0.0,0.0,217.4,0.0,0.0,39.0187777,-104.8936053,2165.89,0.03,178.21,31,6,0.72,1.28,0.005,0.005,0.0,0,-0.02942,0.107873,-9.816457,0.002,0.0,0.0,20,-296,136,16.43,0.02,7,99,,1000,1000,1000,1000,0.022,0.023,0.024,0,0,0,831,0.0067,0.0021,0.0037,0.0056,784.965,46.1,-180.0,0.0,0.0,2026-09-29T16:43:15.122Z,0.002,4.923,0,356.0,0,0,0,0,2026-09-29T16:43:14.754Z,372.2,2026-09-29T16:43:15.123Z,2.6,2026-09-29T16:43:15.124Z,2.0,-6,10,-999,0,0,0,2026-09-29T16:43:15.074Z,51.8,2026-09-29T16:43:14.976Z,150.1,2026-09-29T16:43:15.073Z,53.2,1790700194668356,1447467,2026-09-29T16:43:14.734Z,392.3,,,,4,,,1,2026-09-29T16:43:15.075Z,51.3,16.43,0.01,99,32.0,0.0,0,1198652463,2026-09-29T16:43:14.975Z,151.2,5.244,0.019,1,2026-09-29T16:43:14.730Z,396.1,,,,,,,,,,,,,,,,,,,217,2165.99,2026-09-29T16:43:15.073Z,52.7,0,0,0,0,2026-09-29T16:43:15.074Z,52.2,1508,1514,1529,1493,255,2026-09-29T16:43:14.976Z,150.5,-0.0,0.0,0.0,0.0,0.0,2026-09-29T16:43:14.975Z,150.8,2026-09-29T16:43:14.749Z,377.3,2026-09-29T16:43:14.752Z,373.9,2026-09-29T16:43:14.751Z,374.6,2026-09-29T16:43:14.750Z,376.3,2026-09-29T16:43:14.750Z,375.6
2026-09-29T16:43:15.180Z,2026-09-29T16:43:15.276Z,2026-09-29T10:43:15.276-06:00,0.45,9,False,,1,0,-1.6484,0.229183,-142.603466,0.019481,-0.012032,-0.008594,39.0187776,-104.8936053,2165.99,-2.326,0.0,0.0,0.0,217.4,-0.011,0.0,39.0187777,-104.8936053,2165.88,0.01,175.91,31,6,0.72,1.28,0.006,0.006,0.0,0,-0.039227,0.098066,-9.816457,0.002,0.0,0.0,20,-296,136,16.431,0.01,7,99,,1000,1000,1000,1000,0.021,0.021,0.021,0,0,0,831,0.0028,0.0031,0.0072,0.0009,784.95,46.11,-180.0,0.0,0.0,2026-09-29T16:43:15.172Z,0.002,9.457,0,406.0,0,0,0,0,2026-09-29T16:43:14.754Z,426.6,2026-09-29T16:43:15.177Z,3.6,2026-09-29T16:43:15.178Z,2.9,-7,9,-999,0,-1,0,2026-09-29T16:43:15.174Z,6.4,2026-09-29T16:43:15.176Z,4.6,2026-09-29T16:43:15.173Z,7.7,1790700194668356,1447467,2026-09-29T16:43:14.734Z,446.8,,,,4,,,1,2026-09-29T16:43:15.175Z,5.9,16.431,0.01,99,31.9,0.0,0,1198652463,2026-09-29T16:43:15.175Z,5.6,5.244,0.019,1,2026-09-29T16:43:14.730Z,450.6,,,,,,,,,,,,,,,,,,,217,2165.99,2026-09-29T16:43:15.173Z,7.3,0,0,0,0,2026-09-29T16:43:15.174Z,6.8,1508,1514,1529,1493,255,2026-09-29T16:43:15.176Z,4.9,-0.0,0.0,0.0,0.0,0.0,2026-09-29T16:43:15.175Z,5.3,2026-09-29T16:43:14.749Z,431.8,2026-09-29T16:43:15.180Z,0.2,2026-09-29T16:43:15.180Z,0.6,2026-09-29T16:43:15.180Z,0.9,2026-09-29T16:43:14.750Z,430.0
2026-09-29T16:43:15.226Z,2026-09-29T16:43:15.322Z,2026-09-29T10:43:15.322-06:00,0.5,10,False,,1,0,-1.648973,0.228037,-142.604612,0.0,-0.014324,-0.043545,39.0187776,-104.8936053,2165.99,-2.326,0.0,0.0,0.0,217.4,-0.011,0.0,39.0187777,-104.8936053,2165.88,0.01,175.91,31,6,0.72,1.28,0.006,0.006,0.0,0,-0.02942,0.098066,-9.816457,0.002,0.0,0.0,20,-296,136,16.431,0.01,7,99,,1000,1000,1000,1000,0.021,0.021,0.021,0,0,0,831,0.0028,0.0031,0.0072,0.0009,784.95,46.11,-180.0,0.0,0.0,2026-09-29T16:43:15.222Z,0.002,5.011,0,456.0,0,0,0,0,2026-09-29T16:43:14.754Z,472.2,2026-09-29T16:43:15.224Z,2.6,2026-09-29T16:43:15.224Z,2.0,-7,9,-999,0,-1,0,2026-09-29T16:43:15.174Z,52.0,2026-09-29T16:43:15.176Z,50.2,2026-09-29T16:43:15.173Z,53.4,1790700194668356,1447467,2026-09-29T16:43:14.734Z,492.4,,,,4,,,1,2026-09-29T16:43:15.175Z,51.6,16.431,0.01,99,31.9,0.0,0,1198652463,2026-09-29T16:43:15.175Z,51.2,5.244,0.019,1,2026-09-29T16:43:14.730Z,496.2,,,,,,,,,,,,,,,,,,,217,2165.99,2026-09-29T16:43:15.173Z,53.0,0,0,0,0,2026-09-29T16:43:15.174Z,52.5,1508,1514,1529,1493,255,2026-09-29T16:43:15.176Z,50.5,-0.0,0.0,0.0,0.0,0.0,2026-09-29T16:43:15.175Z,50.9,2026-09-29T16:43:14.749Z,477.4,2026-09-29T16:43:15.180Z,45.9,2026-09-29T16:43:15.180Z,46.2,2026-09-29T16:43:15.180Z,46.5,2026-09-29T16:43:14.750Z,475.7
2026-09-29T16:43:15.278Z,2026-09-29T16:43:15.374Z,2026-09-29T10:43:15.374-06:00,0.55,11,False,,1,0,-1.6484,0.22861,-142.603466,0.012605,0.017189,0.026929,39.0187776,-104.8936053,2165.99,-2.326,0.0,0.0,0.0,217.4,-0.011,0.0,39.0187777,-104.8936053,2165.88,0.01,175.91,31,6,0.72,1.28,0.006,0.006,0.001,0,-0.039227,0.098066,-9.816457,0.002,0.001,0.0,20,-296,136,16.423,0.01,7,99,,1000,1000,1000,1000,0.021,0.021,0.021,0,0,0,831,0.0028,0.0031,0.0072,0.0009,784.95,46.11,-180.0,0.0,0.0,2026-09-29T16:43:15.272Z,0.002,6.984,0,506.0,0,0,0,0,2026-09-29T16:43:14.754Z,524.2,2026-09-29T16:43:15.276Z,2.6,2026-09-29T16:43:15.276Z,2.0,-7,10,-999,0,0,0,2026-09-29T16:43:15.274Z,4.0,2026-09-29T16:43:15.176Z,102.2,2026-09-29T16:43:15.273Z,5.4,1790700194668356,1447467,2026-09-29T16:43:14.734Z,544.4,,,,4,,,1,2026-09-29T16:43:15.275Z,3.5,16.431,0.01,99,31.9,0.0,0,1198652463,2026-09-29T16:43:15.175Z,103.2,5.244,0.019,1,2026-09-29T16:43:14.730Z,548.2,,,,,,,,,,,,,,,,,,,217,2165.99,2026-09-29T16:43:15.273Z,5.0,0,0,0,0,2026-09-29T16:43:15.274Z,4.5,1508,1514,1529,1493,255,2026-09-29T16:43:15.176Z,102.5,-0.0,0.0,0.0,0.0,0.0,2026-09-29T16:43:15.175Z,102.9,2026-09-29T16:43:14.749Z,529.4,2026-09-29T16:43:15.180Z,97.8,2026-09-29T16:43:15.180Z,98.2,2026-09-29T16:43:15.180Z,98.5,2026-09-29T16:43:14.750Z,527.6
2026-09-29T16:43:15.326Z,2026-09-29T16:43:15.422Z,2026-09-29T10:43:15.422-06:00,0.6,12,False,,1,0,-1.6484,0.22861,-142.603466,-0.021772,-0.004011,-0.001719,39.0187776,-104.8936053,2165.99,-2.326,0.0,0.0,0.0,217.4,-0.011,0.0,39.0187777,-104.8936053,2165.88,0.01,175.91,31,6,0.72,1.28,0.006,0.006,0.001,0,-0.039227,0.08826,-9.816457,0.002,0.0,0.0,20,-296,136,16.423,0.01,7,99,,1000,1000,1000,1000,0.021,0.021,0.021,0,0,0,831,0.0028,0.0031,0.0072,0.0009,784.95,46.11,-180.0,0.0,0.0,2026-09-29T16:43:15.322Z,0.002,5.019,0,556.0,0,0,0,0,2026-09-29T16:43:14.754Z,572.3,2026-09-29T16:43:15.323Z,2.7,2026-09-29T16:43:15.324Z,2.0,-7,10,-999,0,0,0,2026-09-29T16:43:15.274Z,52.1,2026-09-29T16:43:15.176Z,150.2,2026-09-29T16:43:15.273Z,53.4,1790700194668356,1447467,2026-09-29T16:43:14.734Z,592.4,,,,4,,,1,2026-09-29T16:43:15.275Z,51.6,16.431,0.01,99,31.9,0.0,0,1198652463,2026-09-29T16:43:15.175Z,151.2,5.244,0.019,1,2026-09-29T16:43:14.730Z,596.2,,,,,,,,,,,,,,,,,,,217,2165.99,2026-09-29T16:43:15.273Z,53.0,0,0,0,0,2026-09-29T16:43:15.274Z,52.5,1508,1514,1529,1493,255,2026-09-29T16:43:15.176Z,150.6,-0.0,0.0,0.0,0.0,0.0,2026-09-29T16:43:15.175Z,150.9,2026-09-29T16:43:14.749Z,577.4,2026-09-29T16:43:15.180Z,145.9,2026-09-29T16:43:15.180Z,146.2,2026-09-29T16:43:15.180Z,146.5,2026-09-29T16:43:14.750Z,575.7
2026-09-29T16:43:15.379Z,2026-09-29T16:43:15.475Z,2026-09-29T10:43:15.475-06:00,0.65,13,False,,1,0,-1.648973,0.22861,-142.602893,-0.013751,-0.00573,0.025783,39.0187776,-104.8936053,2165.99,-2.325,0.0,0.0,0.0,217.4,-0.011,0.0,39.0187777,-104.8936053,2165.88,0.01,17.35,31,6,0.72,1.28,0.006,0.006,0.001,0,-0.039227,0.107873,-9.816457,0.001,0.0,0.0,20,-297,136,16.429,0.01,7,99,,1000,1000,1000,1000,0.021,0.021,0.021,0,0,0,831,0.0028,0.0031,0.0072,0.0009,784.95,46.11,-180.0,0.0,0.0,2026-09-29T16:43:15.372Z,0.002,8.395,0,606.0,0,0,0,0,2026-09-29T16:43:14.754Z,625.6,2026-09-29T16:43:15.377Z,2.6,2026-09-29T16:43:15.378Z,1.9,-6,10,-999,0,-1,0,2026-09-29T16:43:15.374Z,5.4,2026-09-29T16:43:15.376Z,3.6,2026-09-29T16:43:15.373Z,6.7,1790700194668356,1447467,2026-09-29T16:43:14.734Z,645.8,,,,4,,,1,2026-09-29T16:43:15.375Z,4.9,16.429,0.01,99,31.7,0.0,0,1198652463,2026-09-29T16:43:15.375Z,4.6,5.244,0.019,1,2026-09-29T16:43:14.730Z,649.6,,,,,,,,,,,,,,,,,,,217,2165.99,2026-09-29T16:43:15.373Z,6.3,0,0,0,0,2026-09-29T16:43:15.374Z,5.8,1508,1514,1529,1493,255,2026-09-29T16:43:15.376Z,3.9,-0.0,0.0,0.0,0.0,0.0,2026-09-29T16:43:15.375Z,4.3,2026-09-29T16:43:14.749Z,630.8,2026-09-29T16:43:15.180Z,199.2,2026-09-29T16:43:15.180Z,199.6,2026-09-29T16:43:15.180Z,199.9,2026-09-29T16:43:14.750Z,629.1
2026-09-29T16:43:15.426Z,2026-09-29T16:43:15.522Z,2026-09-29T10:43:15.522-06:00,0.7,14,False,,1,0,-1.649545,0.229183,-142.601174,-0.014324,-0.010886,0.035523,39.0187776,-104.8936053,2165.99,-2.325,0.0,0.0,0.0,217.4,-0.011,0.0,39.0187777,-104.8936053,2165.88,0.01,17.35,31,6,0.72,1.28,0.006,0.006,0.001,0,-0.02942,0.107873,-9.816457,0.002,0.0,0.0,20,-297,136,16.429,0.01,7,99,,1000,1000,1000,1000,0.021,0.021,0.021,0,0,0,831,0.0028,0.0031,0.0072,0.0009,784.95,46.11,-180.0,0.0,0.0,2026-09-29T16:43:15.422Z,0.002,4.859,0,656.0,0,0,0,0,2026-09-29T16:43:14.754Z,672.1,2026-09-29T16:43:15.423Z,2.6,2026-09-29T16:43:15.424Z,2.0,-6,10,-999,0,-1,0,2026-09-29T16:43:15.374Z,51.9,2026-09-29T16:43:15.376Z,50.0,2026-09-29T16:43:15.373Z,53.2,1790700194668356,1447467,2026-09-29T16:43:14.734Z,692.3,,,,4,,,1,2026-09-29T16:43:15.375Z,51.4,16.429,0.01,99,31.7,0.0,0,1198652463,2026-09-29T16:43:15.375Z,51.1,5.244,0.019,1,2026-09-29T16:43:14.730Z,696.1,,,,,,,,,,,,,,,,,,,217,2165.99,2026-09-29T16:43:15.373Z,52.8,0,0,0,0,2026-09-29T16:43:15.374Z,52.3,1508,1514,1529,1493,255,2026-09-29T16:43:15.376Z,50.4,-0.0,0.0,0.0,0.0,0.0,2026-09-29T16:43:15.375Z,50.7,2026-09-29T16:43:14.749Z,677.3,2026-09-29T16:43:15.180Z,245.7,2026-09-29T16:43:15.180Z,246.0,2026-09-29T16:43:15.180Z,246.4,2026-09-29T16:43:14.750Z,675.5
2026-09-29T16:43:15.478Z,2026-09-29T16:43:15.574Z,2026-09-29T10:43:15.574-06:00,0.75,15,False,,1,0,-1.648973,0.229756,-142.600601,-0.008021,0.018335,-0.001146,39.0187776,-104.8936053,2165.99,-2.325,0.0,0.0,0.0,217.4,-0.011,0.0,39.0187777,-104.8936053,2165.88,0.01,17.35,31,6,0.72,1.28,0.006,0.006,0.0,0,-0.039227,0.098066,-9.816457,0.001,0.0,0.0,20,-297,136,16.435,0.01,7,99,,1000,1000,1000,1000,0.021,0.021,0.021,0,0,0,831,0.0028,0.0031,0.0072,0.0009,784.95,46.11,-180.0,0.0,0.0,2026-09-29T16:43:15.472Z,0.002,6.994,0,706.0,0,0,0,0,2026-09-29T16:43:14.754Z,724.2,2026-09-29T16:43:15.476Z,2.6,2026-09-29T16:43:15.476Z,2.0,-7,10,-999,0,0,0,2026-09-29T16:43:15.474Z,4.0,2026-09-29T16:43:15.376Z,102.2,2026-09-29T16:43:15.473Z,5.4,1790700194668356,1447467,2026-09-29T16:43:14.734Z,744.4,,,,4,,,1,2026-09-29T16:43:15.475Z,3.6,16.429,0.01,99,31.7,0.0,0,1198652463,2026-09-29T16:43:15.375Z,103.2,5.244,0.019,1,2026-09-29T16:43:14.730Z,748.2,,,,,,,,,,,,,,,,,,,217,2165.99,2026-09-29T16:43:15.473Z,5.0,0,0,0,0,2026-09-29T16:43:15.474Z,4.5,1508,1514,1529,1493,255,2026-09-29T16:43:15.376Z,102.5,-0.0,0.0,0.0,0.0,0.0,2026-09-29T16:43:15.375Z,102.9,2026-09-29T16:43:14.749Z,729.4,2026-09-29T16:43:15.180Z,297.8,2026-09-29T16:43:15.180Z,298.2,2026-09-29T16:43:15.180Z,298.5,2026-09-29T16:43:14.750Z,727.7
2026-09-29T16:43:15.528Z,2026-09-29T16:43:15.624Z,2026-09-29T10:43:15.624-06:00,0.8,16,False,POSHOLD,1,0,-1.648973,0.230902,-142.600601,-0.024064,0.018908,0.016616,39.0187776,-104.8936053,2165.99,-2.325,0.0,0.0,0.0,217.4,-0.011,0.0,39.0187777,-104.8936053,2165.88,0.01,17.35,31,6,0.72,1.28,0.006,0.006,0.0,0,-0.039227,0.098066,-9.816457,0.002,0.0,0.0,20,-297,136,16.435,0.01,7,99,,1000,1000,1000,1000,0.021,0.021,0.021,0,0,0,831,0.0028,0.0031,0.0072,0.0009,784.95,46.11,-180.0,0.0,0.0,2026-09-29T16:43:15.522Z,0.004,7.359,0,756.0,0,16,89,3,2026-09-29T16:43:15.527Z,1.0,2026-09-29T16:43:15.524Z,3.9,2026-09-29T16:43:15.525Z,3.0,-7,10,-999,0,0,0,2026-09-29T16:43:15.474Z,54.2,2026-09-29T16:43:15.376Z,152.4,2026-09-29T16:43:15.473Z,55.6,1790700194668356,1447467,2026-09-29T16:43:14.734Z,794.6,,,,4,,,1,2026-09-29T16:43:15.475Z,53.8,16.429,0.01,99,31.7,0.0,0,1198652463,2026-09-29T16:43:15.375Z,153.4,5.244,0.019,1,2026-09-29T16:43:14.730Z,798.4,,,,,,,,,,,,,,,,,,,217,2165.99,2026-09-29T16:43:15.473Z,55.2,0,0,0,0,2026-09-29T16:43:15.474Z,54.7,1508,1514,1529,1493,255,2026-09-29T16:43:15.376Z,152.7,-0.0,0.0,0.0,0.0,0.0,2026-09-29T16:43:15.375Z,153.1,2026-09-29T16:43:14.749Z,779.6,2026-09-29T16:43:15.180Z,348.1,2026-09-29T16:43:15.180Z,348.4,2026-09-29T16:43:15.180Z,348.7,2026-09-29T16:43:14.750Z,777.9
2026-09-29T16:43:15.581Z,2026-09-29T16:43:15.677Z,2026-09-29T10:43:15.677-06:00,0.85,17,False,POSHOLD,1,0,-1.6484,0.232048,-142.601747,-0.000573,0.014324,-0.014897,39.0187777,-104.8936053,2165.99,-2.324,0.0,0.0,0.0,217.4,0.0,0.0,39.0187777,-104.8936053,2165.89,0.01,354.28,31,6,0.72,1.28,0.005,0.005,0.0,0,-0.039227,0.107873,-9.80665,0.001,0.0,0.0,20,-297,136,16.437,0.01,7,99,,1000,1000,1000,1000,0.021,0.021,0.021,0,0,0,831,0.0028,0.0031,0.0072,0.0009,784.95,46.11,-180.0,0.0,0.0,2026-09-29T16:43:15.572Z,0.003,9.991,0,806.0,0,16,89,3,2026-09-29T16:43:15.527Z,53.7,2026-09-29T16:43:15.577Z,3.9,2026-09-29T16:43:15.578Z,3.2,-6,10,-999,0,0,0,2026-09-29T16:43:15.574Z,6.8,2026-09-29T16:43:15.576Z,4.9,2026-09-29T16:43:15.573Z,8.2,1790700195678251,1448477,2026-09-29T16:43:15.581Z,0.6,,,,4,,,1,2026-09-29T16:43:15.575Z,6.3,16.437,0.01,99,32.4,0.0,0,1198652463,2026-09-29T16:43:15.575Z,5.9,5.234,0.014,1,2026-09-29T16:43:15.580Z,1.2,,,,,,,,,,,,,,,,,,,217,2165.99,2026-09-29T16:43:15.573Z,7.7,0,0,0,0,2026-09-29T16:43:15.574Z,7.2,1508,1514,1529,1493,255,2026-09-29T16:43:15.576Z,5.3,-0.0,0.0,0.0,0.0,0.0,2026-09-29T16:43:15.575Z,5.6,2026-09-29T16:43:15.580Z,0.9,2026-09-29T16:43:15.180Z,400.8,2026-09-29T16:43:15.180Z,401.1,2026-09-29T16:43:15.180Z,401.4,2026-09-29T16:43:15.581Z,0.2
2026-09-29T16:43:15.626Z,2026-09-29T16:43:15.722Z,2026-09-29T10:43:15.722-06:00,0.9,18,False,POSHOLD,1,0,-1.6484,0.232621,-142.601174,-0.021772,-0.008021,0.014324,39.0187777,-104.8936053,2165.99,-2.324,0.0,0.0,0.0,217.4,0.0,0.0,39.0187777,-104.8936053,2165.89,0.01,354.28,31,6,0.72,1.28,0.005,0.005,0.0,0,-0.02942,0.098066,-9.80665,0.002,0.0,0.0,20,-297,136,16.437,0.01,7,99,,1000,1000,1000,1000,0.021,0.021,0.021,0,0,0,831,0.0028,0.0031,0.0072,0.0009,784.95,46.11,-180.0,0.0,0.0,2026-09-29T16:43:15.622Z,0.002,4.914,0,856.0,0,16,89,3,2026-09-29T16:43:15.527Z,98.7,2026-09-29T16:43:15.623Z,2.6,2026-09-29T16:43:15.624Z,2.0,-6,10,-999,0,0,0,2026-09-29T16:43:15.574Z,51.7,2026-09-29T16:43:15.576Z,49.9,2026-09-29T16:43:15.573Z,53.1,1790700195678251,1448477,2026-09-29T16:43:15.581Z,45.5,,,,4,,,1,2026-09-29T16:43:15.575Z,51.2,16.437,0.01,99,32.4,0.0,0,1198652463,2026-09-29T16:43:15.575Z,50.9,5.234,0.014,1,2026-09-29T16:43:15.580Z,46.2,,,,,,,,,,,,,,,,,,,217,2165.99,2026-09-29T16:43:15.573Z,52.7,0,0,0,0,2026-09-29T16:43:15.574Z,52.2,1508,1514,1529,1493,255,2026-09-29T16:43:15.576Z,50.2,-0.0,0.0,0.0,0.0,0.0,2026-09-29T16:43:15.575Z,50.6,2026-09-29T16:43:15.580Z,45.8,2026-09-29T16:43:15.180Z,445.8,2026-09-29T16:43:15.180Z,446.1,2026-09-29T16:43:15.180Z,446.4,2026-09-29T16:43:15.581Z,45.2
2026-09-29T16:43:15.680Z,2026-09-29T16:43:15.776Z,2026-09-29T10:43:15.776-06:00,0.95,19,False,POSHOLD,1,0,-1.648973,0.233194,-142.600601,0.002292,-0.000573,-0.002292,39.0187777,-104.8936053,2165.99,-2.324,0.0,0.0,0.0,217.4,0.0,0.0,39.0187777,-104.8936053,2165.89,0.01,354.28,31,6,0.72,1.28,0.005,0.005,0.0,0,-0.039227,0.098066,-9.80665,0.002,0.0,0.0,20,-297,137,16.442,0.01,7,99,,1000,1000,1000,1000,0.022,0.021,0.022,0,0,0,831,0.0062,0.002,0.0119,0.0076,784.95,46.1,-180.0,0.0,0.0,2026-09-29T16:43:15.672Z,0.002,8.648,0,906.0,0,0,0,0,2026-09-29T16:43:15.679Z,1.2,2026-09-29T16:43:15.676Z,4.2,2026-09-29T16:43:15.676Z,3.5,-7,9,-999,0,0,0,2026-09-29T16:43:15.674Z,5.6,2026-09-29T16:43:15.576Z,103.6,2026-09-29T16:43:15.673Z,7.0,1790700195678251,1448477,2026-09-29T16:43:15.581Z,99.3,,,,4,,,1,2026-09-29T16:43:15.675Z,5.1,16.437,0.01,99,32.4,0.0,0,1198652463,2026-09-29T16:43:15.575Z,104.6,5.234,0.014,1,2026-09-29T16:43:15.580Z,99.9,,,,,,,,,,,,,,,,,,,217,2165.99,2026-09-29T16:43:15.673Z,6.6,0,0,0,0,2026-09-29T16:43:15.674Z,6.0,1508,1514,1529,1493,255,2026-09-29T16:43:15.576Z,104.0,-0.0,0.0,0.0,0.0,0.0,2026-09-29T16:43:15.575Z,104.3,2026-09-29T16:43:15.580Z,99.6,2026-09-29T16:43:15.680Z,0.2,2026-09-29T16:43:15.679Z,0.6,2026-09-29T16:43:15.679Z,0.9,2026-09-29T16:43:15.581Z,98.9
2026-09-29T16:43:15.726Z,2026-09-29T16:43:15.822Z,2026-09-29T10:43:15.822-06:00,1.0,20,False,POSHOLD,1,0,-1.648973,0.233767,-142.601174,-0.019481,0.021199,0.009167,39.0187777,-104.8936053,2165.99,-2.324,0.0,0.0,0.0,217.4,0.0,0.0,39.0187777,-104.8936053,2165.89,0.01,354.28,31,6,0.72,1.28,0.005,0.005,0.0,0,-0.039227,0.098066,-9.816457,0.002,0.0,0.0,20,-297,137,16.442,0.01,7,99,,1000,1000,1000,1000,0.022,0.021,0.022,0,0,0,831,0.0062,0.002,0.0119,0.0076,784.95,46.1,-180.0,0.0,0.0,2026-09-29T16:43:15.722Z,0.002,4.887,0,956.0,0,0,0,0,2026-09-29T16:43:15.679Z,47.4,2026-09-29T16:43:15.723Z,2.6,2026-09-29T16:43:15.724Z,2.0,-7,9,-999,0,0,0,2026-09-29T16:43:15.674Z,51.9,2026-09-29T16:43:15.576Z,149.9,2026-09-29T16:43:15.673Z,53.2,1790700195678251,1448477,2026-09-29T16:43:15.581Z,145.5,,,,4,,,1,2026-09-29T16:43:15.675Z,51.4,16.437,0.01,99,32.4,0.0,0,1198652463,2026-09-29T16:43:15.575Z,150.9,5.234,0.014,1,2026-09-29T16:43:15.580Z,146.1,,,,,,,,,,,,,,,,,,,217,2165.99,2026-09-29T16:43:15.673Z,52.8,0,0,0,0,2026-09-29T16:43:15.674Z,52.3,1508,1514,1529,1493,255,2026-09-29T16:43:15.576Z,150.2,-0.0,0.0,0.0,0.0,0.0,2026-09-29T16:43:15.575Z,150.6,2026-09-29T16:43:15.580Z,145.8,2026-09-29T16:43:15.680Z,46.5,2026-09-29T16:43:15.679Z,46.8,2026-09-29T16:43:15.679Z,47.1,2026-09-29T16:43:15.581Z,145.2
2026-09-29T16:43:15.780Z,2026-09-29T16:43:15.876Z,2026-09-29T10:43:15.876-06:00,1.05,21,False,POSHOLD,1,0,-1.647827,0.233194,-142.600601,0.017762,-0.025783,0.021772,39.0187777,-104.8936053,2165.99,-2.325,0.0,0.0,0.0,217.4,0.0,0.0,39.0187777,-104.8936053,2165.89,0.01,138.81,31,6,0.72,1.28,0.006,0.006,0.0,0,-0.02942,0.098066,-9.80665,0.002,0.0,0.0,20,-297,136,16.45,0.01,7,99,,1000,1000,1000,1000,0.022,0.021,0.022,0,0,0,831,0.0062,0.002,0.0119,0.0076,784.95,46.1,-180.0,0.0,0.0,2026-09-29T16:43:15.772Z,0.003,9.313,0,-8.0,0,0,0,0,2026-09-29T16:43:15.679Z,101.8,2026-09-29T16:43:15.777Z,3.4,2026-09-29T16:43:15.778Z,2.6,-6,9,-999,0,-1,0,2026-09-29T16:43:15.774Z,6.1,2026-09-29T16:43:15.776Z,4.3,2026-09-29T16:43:15.773Z,7.5,1790700195678251,1448477,2026-09-29T16:43:15.581Z,199.8,,,,4,,,1,2026-09-29T16:43:15.775Z,5.7,16.45,0.01,99,32.1,0.0,0,1198652463,2026-09-29T16:43:15.775Z,5.3,5.234,0.014,1,2026-09-29T16:43:15.580Z,200.5,,,,,,,,,,,,,,,,,,,217,2165.99,2026-09-29T16:43:15.773Z,7.1,0,0,0,0,2026-09-29T16:43:15.774Z,6.6,1508,1514,1529,1493,255,2026-09-29T16:43:15.776Z,4.6,-0.0,0.0,0.0,0.0,0.0,2026-09-29T16:43:15.775Z,5.0,2026-09-29T16:43:15.580Z,200.1,2026-09-29T16:43:15.680Z,100.8,2026-09-29T16:43:15.679Z,101.1,2026-09-29T16:43:15.679Z,101.4,2026-09-29T16:43:15.581Z,199.5
2026-09-29T16:43:15.826Z,2026-09-29T16:43:15.922Z,2026-09-29T10:43:15.922-06:00,1.1,22,False,POSHOLD,1,0,-1.6484,0.232621,-142.599455,-0.007448,0.006303,0.003438,39.0187777,-104.8936053,2165.99,-2.325,0.0,0.0,0.0,217.4,0.0,0.0,39.0187777,-104.8936053,2165.89,0.01,138.81,31,6,0.72,1.28,0.006,0.006,0.0,0,-0.039227,0.08826,-9.80665,0.002,0.001,0.0,20,-297,136,16.45,0.01,7,99,,1000,1000,1000,1000,0.022,0.021,0.022,0,0,0,831,0.0062,0.002,0.0119,0.0076,784.95,46.1,-180.0,0.0,0.0,2026-09-29T16:43:15.822Z,0.002,4.906,0,42.0,0,0,0,0,2026-09-29T16:43:15.679Z,147.5,2026-09-29T16:43:15.823Z,2.6,2026-09-29T16:43:15.824Z,2.0,-6,9,-999,0,-1,0,2026-09-29T16:43:15.774Z,51.8,2026-09-29T16:43:15.776Z,50.0,2026-09-29T16:43:15.773Z,53.2,1790700195678251,1448477,2026-09-29T16:43:15.581Z,245.5,,,,4,,,1,2026-09-29T16:43:15.775Z,51.3,16.45,0.01,99,32.1,0.0,0,1198652463,2026-09-29T16:43:15.775Z,51.0,5.234,0.014,1,2026-09-29T16:43:15.580Z,246.2,,,,,,,,,,,,,,,,,,,217,2165.99,2026-09-29T16:43:15.773Z,52.8,0,0,0,0,2026-09-29T16:43:15.774Z,52.3,1508,1514,1529,1493,255,2026-09-29T16:43:15.776Z,50.3,-0.0,0.0,0.0,0.0,0.0,2026-09-29T16:43:15.775Z,50.7,2026-09-29T16:43:15.580Z,245.8,2026-09-29T16:43:15.680Z,146.5,2026-09-29T16:43:15.679Z,146.8,2026-09-29T16:43:15.679Z,147.1,2026-09-29T16:43:15.581Z,245.2
2026-09-29T16:43:15.878Z,2026-09-29T16:43:15.974Z,2026-09-29T10:43:15.974-06:00,1.15,23,False,POSHOLD,1,0,-1.648973,0.232621,-142.600601,-0.006875,-0.023491,-0.045264,39.0187777,-104.8936053,2165.99,-2.325,0.0,0.0,0.0,217.41,0.0,0.0,39.0187777,-104.8936053,2165.89,0.01,138.81,31,6,0.72,1.28,0.006,0.006,0.0,0,-0.039227,0.107873,-9.80665,0.002,0.0,0.0,20,-297,136,16.459,0.01,7,99,,1000,1000,1000,1000,0.022,0.021,0.022,0,0,0,831,0.0062,0.002,0.0119,0.0076,784.95,46.1,-180.0,0.0,0.0,2026-09-29T16:43:15.872Z,0.002,6.979,0,92.0,0,0,0,0,2026-09-29T16:43:15.679Z,199.5,2026-09-29T16:43:15.876Z,2.6,2026-09-29T16:43:15.876Z,2.0,-7,8,-999,0,0,0,2026-09-29T16:43:15.874Z,4.0,2026-09-29T16:43:15.776Z,102.0,2026-09-29T16:43:15.873Z,5.4,1790700195678251,1448477,2026-09-29T16:43:15.581Z,297.6,,,,4,,,1,2026-09-29T16:43:15.875Z,3.5,16.45,0.01,99,32.1,0.0,0,1198652463,2026-09-29T16:43:15.775Z,103.1,5.234,0.014,1,2026-09-29T16:43:15.580Z,298.2,,,,,,,,,,,,,,,,,,,217,2165.99,2026-09-29T16:43:15.873Z,5.0,0,0,0,0,2026-09-29T16:43:15.874Z,4.5,1508,1514,1529,1493,255,2026-09-29T16:43:15.776Z,102.4,-0.0,0.0,0.0,0.0,0.0,2026-09-29T16:43:15.775Z,102.8,2026-09-29T16:43:15.580Z,297.9,2026-09-29T16:43:15.680Z,198.6,2026-09-29T16:43:15.679Z,198.9,2026-09-29T16:43:15.679Z,199.2,2026-09-29T16:43:15.581Z,297.3
2026-09-29T16:43:15.926Z,2026-09-29T16:43:16.022Z,2026-09-29T10:43:16.022-06:00,1.2,24,False,POSHOLD,1,0,-1.648973,0.232621,-142.600601,-0.018908,0.013751,0.001146,39.0187777,-104.8936053,2165.99,-2.325,0.0,0.0,0.0,217.41,0.0,0.0,39.0187777,-104.8936053,2165.89,0.01,138.81,31,6,0.72,1.28,0.006,0.006,0.0,0,-0.02942,0.098066,-9.816457,0.002,0.0,0.0,20,-297,136,16.459,0.01,7,99,,1000,1000,1000,1000,0.022,0.021,0.022,0,0,0,831,0.0062,0.002,0.0119,0.0076,784.95,46.1,-180.0,0.0,0.0,2026-09-29T16:43:15.922Z,0.003,5.021,0,142.0,0,0,0,0,2026-09-29T16:43:15.679Z,247.6,2026-09-29T16:43:15.924Z,2.6,2026-09-29T16:43:15.924Z,2.0,-7,8,-999,0,0,0,2026-09-29T16:43:15.874Z,52.1,2026-09-29T16:43:15.776Z,150.1,2026-09-29T16:43:15.873Z,53.4,1790700195678251,1448477,2026-09-29T16:43:15.581Z,345.6,,,,4,,,1,2026-09-29T16:43:15.875Z,51.6,16.45,0.01,99,32.1,0.0,0,1198652463,2026-09-29T16:43:15.775Z,151.1,5.234,0.014,1,2026-09-29T16:43:15.580Z,346.3,,,,,,,,,,,,,,,,,,,217,2165.99,2026-09-29T16:43:15.873Z,53.0,0,0,0,0,2026-09-29T16:43:15.874Z,52.5,1508,1514,1529,1493,255,2026-09-29T16:43:15.776Z,150.5,-0.0,0.0,0.0,0.0,0.0,2026-09-29T16:43:15.775Z,150.8,2026-09-29T16:43:15.580Z,346.0,2026-09-29T16:43:15.680Z,246.6,2026-09-29T16:43:15.679Z,246.9,2026-09-29T16:43:15.679Z,247.3,2026-09-29T16:43:15.581Z,345.3
2026-09-29T16:43:15.979Z,2026-09-29T16:43:16.075Z,2026-09-29T10:43:16.075-06:00,1.25,25,False,POSHOLD,1,0,-1.650118,0.233194,-142.599455,-0.024064,0.024064,0.021199,39.0187777,-104.8936053,2165.99,-2.327,0.0,0.0,0.0,217.41,0.0,0.0,39.0187777,-104.8936053,2165.88,0.0,147.99,31,6,0.72,1.28,0.006,0.006,-0.001,0,-0.049033,0.098066,-9.80665,0.002,0.001,0.0,20,-297,136,16.459,0.01,7,99,,1000,1000,1000,1000,0.022,0.021,0.022,0,0,0,831,0.0062,0.002,0.0119,0.0076,784.95,46.1,-180.0,0.0,0.0,2026-09-29T16:43:15.972Z,0.002,8.377,0,192.0,0,0,0,0,2026-09-29T16:43:15.679Z,300.9,2026-09-29T16:43:15.977Z,2.6,2026-09-29T16:43:15.978Z,1.9,-7,9,-998,0,0,0,2026-09-29T16:43:15.974Z,5.4,2026-09-29T16:43:15.976Z,3.6,2026-09-29T16:43:15.973Z,6.8,1790700195678251,1448477,2026-09-29T16:43:15.581Z,399.0,,,,4,,,1,2026-09-29T16:43:15.975Z,4.9,16.459,0.01,99,31.9,0.0,0,1198652463,2026-09-29T16:43:15.975Z,4.6,5.234,0.014,1,2026-09-29T16:43:15.580Z,399.6,,,,,,,,,,,,,,,,,,,217,2165.99,2026-09-29T16:43:15.973Z,6.3,0,0,0,0,2026-09-29T16:43:15.974Z,5.8,1508,1513,1529,1493,255,2026-09-29T16:43:15.976Z,3.9,-0.0,0.0,0.0,0.0,0.0,2026-09-29T16:43:15.975Z,4.3,2026-09-29T16:43:15.580Z,399.3,2026-09-29T16:43:15.680Z,300.0,2026-09-29T16:43:15.679Z,300.3,2026-09-29T16:43:15.679Z,300.6,2026-09-29T16:43:15.581Z,398.7
2026-09-29T16:43:16.027Z,2026-09-29T16:43:16.123Z,2026-09-29T10:43:16.123-06:00,1.3,26,False,POSHOLD,1,0,-1.649545,0.233767,-142.599455,0.008594,0.000573,0.012032,39.0187777,-104.8936053,2165.99,-2.327,0.0,0.0,0.0,217.41,0.0,0.0,39.0187777,-104.8936053,2165.88,0.0,147.99,31,6,0.72,1.28,0.006,0.006,-0.001,0,-0.02942,0.098066,-9.80665,0.001,0.001,0.0,20,-297,136,16.459,0.01,7,99,,1000,1000,1000,1000,0.022,0.021,0.022,0,0,0,831,0.0062,0.002,0.0119,0.0076,784.95,46.1,-180.0,0.0,0.0,2026-09-29T16:43:16.022Z,0.003,6.206,0,242.0,0,0,0,0,2026-09-29T16:43:15.679Z,348.7,2026-09-29T16:43:16.024Z,3.4,2026-09-29T16:43:16.025Z,2.6,-7,9,-998,0,0,0,2026-09-29T16:43:15.974Z,53.2,2026-09-29T16:43:15.976Z,51.3,2026-09-29T16:43:15.973Z,54.5,1790700195678251,1448477,2026-09-29T16:43:15.581Z,446.8,,,,4,,,1,2026-09-29T16:43:15.975Z,52.7,16.459,0.01,99,31.9,0.0,0,1198652463,2026-09-29T16:43:15.975Z,52.4,5.234,0.014,1,2026-09-29T16:43:15.580Z,447.4,,,,,,,,,,,,,,,,,,,217,2165.99,2026-09-29T16:43:15.973Z,54.1,0,0,0,0,2026-09-29T16:43:15.974Z,53.6,1508,1513,1529,1493,255,2026-09-29T16:43:15.976Z,51.7,-0.0,0.0,0.0,0.0,0.0,2026-09-29T16:43:15.975Z,52.0,2026-09-29T16:43:15.580Z,447.1,2026-09-29T16:43:15.680Z,347.7,2026-09-29T16:43:15.679Z,348.1,2026-09-29T16:43:15.679Z,348.4,2026-09-29T16:43:15.581Z,446.5
2026-09-29T16:43:16.078Z,2026-09-29T16:43:16.174Z,2026-09-29T10:43:16.174-06:00,1.35,27,False,POSHOLD,1,0,-1.649545,0.233767,-142.599455,-0.038961,-0.010886,-0.009167,39.0187777,-104.8936053,2165.99,-2.328,0.0,0.0,0.0,217.41,0.0,0.0,39.0187777,-104.8936053,2165.88,0.0,147.99,31,6,0.72,1.28,0.006,0.006,-0.001,0,-0.02942,0.098066,-9.826263,0.002,0.0,0.0,20,-297,136,16.462,0.01,7,99,,1000,1000,1000,1000,0.022,0.021,0.022,0,0,0,831,0.0062,0.002,0.0119,0.0076,784.95,46.1,-180.0,0.0,0.0,2026-09-29T16:43:16.072Z,0.003,7.212,0,292.0,0,0,0,0,2026-09-29T16:43:15.679Z,399.8,2026-09-29T16:43:16.076Z,2.6,2026-09-29T16:43:16.076Z,2.0,-6,9,-999,0,0,0,2026-09-29T16:43:16.074Z,4.1,2026-09-29T16:43:15.976Z,102.4,2026-09-29T16:43:16.073Z,5.5,1790700195678251,1448477,2026-09-29T16:43:15.581Z,497.8,,,,4,,,1,2026-09-29T16:43:16.075Z,3.6,16.459,0.01,99,31.9,0.0,0,1198652463,2026-09-29T16:43:15.975Z,103.4,5.234,0.014,1,2026-09-29T16:43:15.580Z,498.5,,,,,,,,,,,,,,,,,,,217,2165.99,2026-09-29T16:43:16.073Z,5.0,0,0,0,0,2026-09-29T16:43:16.074Z,4.5,1508,1513,1529,1493,255,2026-09-29T16:43:15.976Z,102.8,-0.0,0.0,0.0,0.0,0.0,2026-09-29T16:43:15.975Z,103.1,2026-09-29T16:43:15.580Z,498.2,2026-09-29T16:43:15.680Z,398.8,2026-09-29T16:43:15.679Z,399.1,2026-09-29T16:43:15.679Z,399.5,2026-09-29T16:43:15.581Z,497.5
2026-09-29T16:43:16.126Z,2026-09-29T16:43:16.222Z,2026-09-29T10:43:16.222-06:00,1.4,28,False,POSHOLD,1,0,-1.650118,0.233767,-142.600028,-0.014324,-0.009167,0.000573,39.0187777,-104.8936053,2165.99,-2.328,0.0,0.0,0.0,217.41,0.0,0.0,39.0187777,-104.8936053,2165.88,0.0,147.99,31,6,0.72,1.28,0.006,0.006,-0.001,0,-0.049033,0.098066,-9.80665,0.002,0.0,0.0,20,-297,136,16.462,0.01,7,99,,1000,1000,1000,1000,0.022,0.021,0.022,0,0,0,831,0.0062,0.002,0.0119,0.0076,784.95,46.1,-180.0,0.0,0.0,2026-09-29T16:43:16.122Z,0.002,4.921,0,342.0,0,0,0,0,2026-09-29T16:43:15.679Z,447.5,2026-09-29T16:43:16.123Z,2.6,2026-09-29T16:43:16.124Z,2.0,-6,9,-999,0,0,0,2026-09-29T16:43:16.074Z,51.8,2026-09-29T16:43:15.976Z,150.1,2026-09-29T16:43:16.073Z,53.2,1790700195678251,1448477,2026-09-29T16:43:15.581Z,545.5,,,,4,,,1,2026-09-29T16:43:16.075Z,51.3,16.459,0.01,99,31.9,0.0,0,1198652463,2026-09-29T16:43:15.975Z,151.1,5.234,0.014,1,2026-09-29T16:43:15.580Z,546.2,,,,,,,,,,,,,,,,,,,217,2165.99,2026-09-29T16:43:16.073Z,52.7,0,0,0,0,2026-09-29T16:43:16.074Z,52.2,1508,1513,1529,1493,255,2026-09-29T16:43:15.976Z,150.5,-0.0,0.0,0.0,0.0,0.0,2026-09-29T16:43:15.975Z,150.8,2026-09-29T16:43:15.580Z,545.9,2026-09-29T16:43:15.680Z,446.5,2026-09-29T16:43:15.679Z,446.8,2026-09-29T16:43:15.679Z,447.2,2026-09-29T16:43:15.581Z,545.2
2026-09-29T16:43:16.181Z,2026-09-29T16:43:16.277Z,2026-09-29T10:43:16.277-06:00,1.45,29,False,POSHOLD,1,0,-1.650691,0.234913,-142.600601,-0.013751,0.014324,-0.013751,39.0187777,-104.8936053,2165.99,-2.329,0.0,0.0,0.0,217.4,0.0,0.0,39.0187777,-104.8936053,2165.89,0.01,24.44,31,6,0.72,1.28,0.006,0.006,-0.002,0,-0.039227,0.098066,-9.816457,0.001,0.0,0.0,20,-297,136,16.466,0.01,7,99,,1000,1000,1000,1000,0.019,0.021,0.023,0,0,0,831,0.0161,0.0023,0.0109,0.0011,784.945,46.11,-180.0,0.0,0.0,2026-09-29T16:43:16.172Z,0.002,10.048,0,392.0,0,0,0,0,2026-09-29T16:43:15.679Z,502.5,2026-09-29T16:43:16.177Z,4.0,2026-09-29T16:43:16.178Z,3.3,-6,10,-1000,0,0,0,2026-09-29T16:43:16.174Z,6.8,2026-09-29T16:43:16.176Z,4.9,2026-09-29T16:43:16.173Z,8.2,1790700195678251,1448477,2026-09-29T16:43:15.581Z,600.5,,,,4,,,1,2026-09-29T16:43:16.175Z,6.3,16.466,0.01,99,32.2,0.0,0,1198652463,2026-09-29T16:43:16.175Z,6.0,5.234,0.014,1,2026-09-29T16:43:15.580Z,601.2,,,,,,,,,,,,,,,,,,,217,2165.99,2026-09-29T16:43:16.173Z,7.8,0,0,0,0,2026-09-29T16:43:16.174Z,7.2,1508,1514,1529,1493,255,2026-09-29T16:43:16.176Z,5.3,-0.0,0.0,0.0,0.0,0.0,2026-09-29T16:43:16.175Z,5.7,2026-09-29T16:43:15.580Z,600.8,2026-09-29T16:43:16.181Z,0.2,2026-09-29T16:43:16.181Z,0.6,2026-09-29T16:43:16.180Z,0.9,2026-09-29T16:43:15.581Z,600.2
2026-09-29T16:43:16.226Z,2026-09-29T16:43:16.322Z,2026-09-29T10:43:16.322-06:00,1.5,30,False,POSHOLD,1,0,-1.650118,0.234913,-142.600028,0.001719,-0.00573,0.009167,39.0187777,-104.8936053,2165.99,-2.329,0.0,0.0,0.0,217.4,0.0,0.0,39.0187777,-104.8936053,2165.89,0.01,24.44,31,6,0.72,1.28,0.006,0.006,-0.002,0,-0.039227,0.098066,-9.816457,0.002,0.0,0.0,20,-297,136,16.466,0.01,7,99,,1000,1000,1000,1000,0.019,0.021,0.023,0,0,0,831,0.0161,0.0023,0.0109,0.0011,784.945,46.11,-180.0,0.0,0.0,2026-09-29T16:43:16.222Z,0.002,4.896,0,442.0,0,0,0,0,2026-09-29T16:43:15.679Z,547.5,2026-09-29T16:43:16.223Z,2.6,2026-09-29T16:43:16.224Z,2.0,-6,10,-1000,0,0,0,2026-09-29T16:43:16.174Z,51.8,2026-09-29T16:43:16.176Z,49.9,2026-09-29T16:43:16.173Z,53.2,1790700195678251,1448477,2026-09-29T16:43:15.581Z,645.5,,,,4,,,1,2026-09-29T16:43:16.175Z,51.3,16.466,0.01,99,32.2,0.0,0,1198652463,2026-09-29T16:43:16.175Z,51.0,5.234,0.014,1,2026-09-29T16:43:15.580Z,646.1,,,,,,,,,,,,,,,,,,,217,2165.99,2026-09-29T16:43:16.173Z,52.7,0,0,0,0,2026-09-29T16:43:16.174Z,52.2,1508,1514,1529,1493,255,2026-09-29T16:43:16.176Z,50.3,-0.0,0.0,0.0,0.0,0.0,2026-09-29T16:43:16.175Z,50.6,2026-09-29T16:43:15.580Z,645.8,2026-09-29T16:43:16.181Z,45.2,2026-09-29T16:43:16.181Z,45.5,2026-09-29T16:43:16.180Z,45.9,2026-09-29T16:43:15.581Z,645.2
2026-09-29T16:43:16.278Z,2026-09-29T16:43:16.374Z,2026-09-29T10:43:16.374-06:00,1.55,31,False,POSHOLD,1,0,-1.650118,0.235486,-142.600601,-0.023491,-0.012032,-0.024064,39.0187777,-104.8936053,2165.99,-2.328,0.0,0.0,0.0,217.41,0.0,0.0,39.0187777,-104.8936053,2165.89,0.01,24.44,31,6,0.72,1.28,0.006,0.006,-0.002,0,-0.039227,0.098066,-9.816457,0.002,0.0,0.0,20,-297,136,16.459,0.01,7,99,,1000,1000,1000,1000,0.019,0.021,0.023,0,0,0,831,0.0161,0.0023,0.0109,0.0011,784.945,46.11,-180.0,0.0,0.0,2026-09-29T16:43:16.272Z,0.002,7.038,0,492.0,0,0,0,0,2026-09-29T16:43:15.679Z,599.6,2026-09-29T16:43:16.276Z,2.6,2026-09-29T16:43:16.276Z,2.0,-7,10,-998,0,0,0,2026-09-29T16:43:16.274Z,4.0,2026-09-29T16:43:16.176Z,102.1,2026-09-29T16:43:16.273Z,5.4,1790700195678251,1448477,2026-09-29T16:43:15.581Z,697.7,,,,4,,,1,2026-09-29T16:43:16.275Z,3.5,16.466,0.01,99,32.2,0.0,0,1198652463,2026-09-29T16:43:16.175Z,103.1,5.234,0.014,1,2026-09-29T16:43:15.580Z,698.3,,,,,,,,,,,,,,,,,,,217,2165.99,2026-09-29T16:43:16.273Z,5.0,0,0,0,0,2026-09-29T16:43:16.274Z,4.5,1508,1514,1529,1493,255,2026-09-29T16:43:16.176Z,102.4,-0.0,0.0,0.0,0.0,0.0,2026-09-29T16:43:16.175Z,102.8,2026-09-29T16:43:15.580Z,698.0,2026-09-29T16:43:16.181Z,97.4,2026-09-29T16:43:16.181Z,97.7,2026-09-29T16:43:16.180Z,98.0,2026-09-29T16:43:15.581Z,697.3
2026-09-29T16:43:16.326Z,2026-09-29T16:43:16.422Z,2026-09-29T10:43:16.422-06:00,1.6,32,False,POSHOLD,1,0,-1.650118,0.236059,-142.600028,0.024064,-0.001719,-0.016043,39.0187777,-104.8936053,2165.99,-2.328,0.0,0.0,0.0,217.41,0.0,0.0,39.0187777,-104.8936053,2165.89,0.01,24.44,31,6,0.72,1.28,0.006,0.006,-0.002,0,-0.02942,0.098066,-9.816457,0.001,0.0,0.0,20,-297,136,16.459,0.01,7,99,,1000,1000,1000,1000,0.019,0.021,0.023,0,0,0,831,0.0161,0.0023,0.0109,0.0011,784.945,46.11,-180.0,0.0,0.0,2026-09-29T16:43:16.322Z,0.002,5.262,0,542.0,0,0,0,0,2026-09-29T16:43:15.679Z,647.8,2026-09-29T16:43:16.323Z,2.9,2026-09-29T16:43:16.324Z,2.3,-7,10,-998,0,0,0,2026-09-29T16:43:16.274Z,52.2,2026-09-29T16:43:16.176Z,150.2,2026-09-29T16:43:16.273Z,53.6,1790700195678251,1448477,2026-09-29T16:43:15.581Z,745.8,,,,4,,,1,2026-09-29T16:43:16.275Z,51.7,16.466,0.01,99,32.2,0.0,0,1198652463,2026-09-29T16:43:16.175Z,151.3,5.234,0.014,1,2026-09-29T16:43:15.580Z,746.5,,,,,,,,,,,,,,,,,,,217,2165.99,2026-09-29T16:43:16.273Z,53.1,0,0,0,0,2026-09-29T16:43:16.274Z,52.6,1508,1514,1529,1493,255,2026-09-29T16:43:16.176Z,150.6,-0.0,0.0,0.0,0.0,0.0,2026-09-29T16:43:16.175Z,150.9,2026-09-29T16:43:15.580Z,746.1,2026-09-29T16:43:16.181Z,145.5,2026-09-29T16:43:16.181Z,145.9,2026-09-29T16:43:16.180Z,146.2,2026-09-29T16:43:15.581Z,745.5
2026-09-29T16:43:16.380Z,2026-09-29T16:43:16.476Z,2026-09-29T10:43:16.476-06:00,1.65,33,False,POSHOLD,1,0,-1.650118,0.236632,-142.600028,0.008594,-0.010886,-0.010886,39.0187777,-104.8936053,2165.99,-2.326,0.0,0.0,0.0,217.41,0.0,0.0,39.0187777,-104.8936053,2165.89,0.02,92.86,31,6,0.72,1.28,0.007,0.007,-0.001,0,-0.039227,0.098066,-9.816457,0.002,0.0,0.0,20,-297,136,16.461,0.01,7,99,,1000,1000,1000,1000,0.019,0.021,0.023,0,0,0,831,0.0161,0.0023,0.0109,0.0011,784.945,46.11,-180.0,0.0,0.0,2026-09-29T16:43:16.372Z,0.002,9.305,0,592.0,0,0,0,0,2026-09-29T16:43:15.679Z,701.8,2026-09-29T16:43:16.378Z,2.6,2026-09-29T16:43:16.378Z,1.9,-6,10,-999,0,0,0,2026-09-29T16:43:16.375Z,5.8,2026-09-29T16:43:16.376Z,3.9,2026-09-29T16:43:16.373Z,7.1,1790700195678251,1448477,2026-09-29T16:43:15.581Z,799.9,,,,4,,,1,2026-09-29T16:43:16.375Z,5.3,16.461,0.01,99,32.4,0.0,0,1198652463,2026-09-29T16:43:16.375Z,5.0,5.234,0.014,1,2026-09-29T16:43:15.580Z,800.5,,,,,,,,,,,,,,,,,,,217,2165.99,2026-09-29T16:43:16.374Z,6.7,0,0,0,0,2026-09-29T16:43:16.374Z,6.2,1508,1514,1529,1493,255,2026-09-29T16:43:16.376Z,4.3,-0.0,0.0,0.0,0.0,0.0,2026-09-29T16:43:16.376Z,4.7,2026-09-29T16:43:15.580Z,800.2,2026-09-29T16:43:16.181Z,199.6,2026-09-29T16:43:16.181Z,199.9,2026-09-29T16:43:16.180Z,200.2,2026-09-29T16:43:15.581Z,799.5
2026-09-29T16:43:16.426Z,2026-09-29T16:43:16.522Z,2026-09-29T10:43:16.522-06:00,1.7,34,False,POSHOLD,1,0,-1.651264,0.237777,-142.598309,-0.008594,0.017189,0.033805,39.0187777,-104.8936053,2165.99,-2.326,0.0,0.0,0.0,217.41,0.0,0.0,39.0187777,-104.8936053,2165.89,0.02,92.86,31,6,0.72,1.28,0.007,0.007,-0.001,0,-0.039227,0.098066,-9.80665,0.001,0.0,0.0,20,-297,136,16.461,0.01,7,99,,1000,1000,1000,1000,0.019,0.021,0.023,0,0,0,831,0.0161,0.0023,0.0109,0.0011,784.945,46.11,-180.0,0.0,0.0,2026-09-29T16:43:16.422Z,0.002,4.883,0,642.0,0,0,0,0,2026-09-29T16:43:15.679Z,747.4,2026-09-29T16:43:16.423Z,2.6,2026-09-29T16:43:16.424Z,2.0,-6,10,-999,0,0,0,2026-09-29T16:43:16.375Z,51.4,2026-09-29T16:43:16.376Z,49.6,2026-09-29T16:43:16.373Z,52.7,1790700195678251,1448477,2026-09-29T16:43:15.581Z,845.5,,,,4,,,1,2026-09-29T16:43:16.375Z,51.0,16.461,0.01,99,32.4,0.0,0,1198652463,2026-09-29T16:43:16.375Z,50.6,5.234,0.014,1,2026-09-29T16:43:15.580Z,846.1,,,,,,,,,,,,,,,,,,,217,2165.99,2026-09-29T16:43:16.374Z,52.4,0,0,0,0,2026-09-29T16:43:16.374Z,51.9,1508,1514,1529,1493,255,2026-09-29T16:43:16.376Z,49.9,-0.0,0.0,0.0,0.0,0.0,2026-09-29T16:43:16.376Z,50.3,2026-09-29T16:43:15.580Z,845.8,2026-09-29T16:43:16.181Z,245.2,2026-09-29T16:43:16.181Z,245.5,2026-09-29T16:43:16.180Z,245.8,2026-09-29T16:43:15.581Z,845.2
2026-09-29T16:43:16.478Z,2026-09-29T16:43:16.574Z,2026-09-29T10:43:16.574-06:00,1.75,35,False,POSHOLD,1,0,-1.650691,0.237205,-142.597163,-0.016616,-0.01547,0.002865,39.0187777,-104.8936053,2165.99,-2.325,0.0,0.0,0.0,217.41,0.0,0.0,39.0187777,-104.8936053,2165.89,0.02,92.86,31,6,0.72,1.28,0.007,0.007,-0.001,0,-0.039227,0.098066,-9.816457,0.002,0.0,0.0,20,-296,136,16.461,0.01,7,99,,1000,1000,1000,1000,0.019,0.021,0.023,0,0,0,831,0.0161,0.0023,0.0109,0.0011,784.945,46.11,-180.0,0.0,0.0,2026-09-29T16:43:16.472Z,0.002,7.002,0,692.0,0,0,0,0,2026-09-29T16:43:15.679Z,799.6,2026-09-29T16:43:16.476Z,2.6,2026-09-29T16:43:16.476Z,2.0,-6,10,-999,0,0,0,2026-09-29T16:43:16.474Z,4.0,2026-09-29T16:43:16.376Z,101.7,2026-09-29T16:43:16.473Z,5.4,1790700195678251,1448477,2026-09-29T16:43:15.581Z,897.6,,,,4,,,1,2026-09-29T16:43:16.475Z,3.6,16.461,0.01,99,32.4,0.0,0,1198652463,2026-09-29T16:43:16.375Z,102.7,5.234,0.014,1,2026-09-29T16:43:15.580Z,898.2,,,,,,,,,,,,,,,,,,,217,2165.99,2026-09-29T16:43:16.473Z,5.0,0,0,0,0,2026-09-29T16:43:16.474Z,4.5,1508,1514,1529,1493,255,2026-09-29T16:43:16.376Z,102.1,-0.0,0.0,0.0,0.0,0.0,2026-09-29T16:43:16.376Z,102.4,2026-09-29T16:43:15.580Z,897.9,2026-09-29T16:43:16.181Z,297.3,2026-09-29T16:43:16.181Z,297.6,2026-09-29T16:43:16.180Z,298.0,2026-09-29T16:43:15.581Z,897.3
2026-09-29T16:43:16.527Z,2026-09-29T16:43:16.623Z,2026-09-29T10:43:16.623-06:00,1.8,36,False,POSHOLD,1,0,-1.650691,0.237205,-142.59659,0.001146,0.000573,0.002865,39.0187777,-104.8936053,2165.99,-2.325,0.0,0.0,0.0,217.41,0.0,0.0,39.0187777,-104.8936053,2165.89,0.02,92.86,31,6,0.72,1.28,0.007,0.007,-0.001,0,-0.039227,0.098066,-9.816457,0.002,0.0,0.0,20,-296,136,16.461,0.01,7,99,,1000,1000,1000,1000,0.019,0.021,0.023,0,0,0,831,0.0161,0.0023,0.0109,0.0011,784.945,46.11,-180.0,0.0,0.0,2026-09-29T16:43:16.522Z,0.002,5.578,0,742.0,0,16,89,3,2026-09-29T16:43:16.526Z,0.7,2026-09-29T16:43:16.524Z,3.0,2026-09-29T16:43:16.524Z,2.4,-6,10,-999,0,0,0,2026-09-29T16:43:16.474Z,52.6,2026-09-29T16:43:16.376Z,150.3,2026-09-29T16:43:16.473Z,54.0,1790700195678251,1448477,2026-09-29T16:43:15.581Z,946.2,,,,4,,,1,2026-09-29T16:43:16.475Z,52.1,16.461,0.01,99,32.4,0.0,0,1198652463,2026-09-29T16:43:16.375Z,151.3,5.234,0.014,1,2026-09-29T16:43:15.580Z,946.8,,,,,,,,,,,,,,,,,,,217,2165.99,2026-09-29T16:43:16.473Z,53.5,0,0,0,0,2026-09-29T16:43:16.474Z,53.0,1508,1514,1529,1493,255,2026-09-29T16:43:16.376Z,150.6,-0.0,0.0,0.0,0.0,0.0,2026-09-29T16:43:16.376Z,151.0,2026-09-29T16:43:15.580Z,946.5,2026-09-29T16:43:16.181Z,345.9,2026-09-29T16:43:16.181Z,346.2,2026-09-29T16:43:16.180Z,346.5,2026-09-29T16:43:15.581Z,945.9
2026-09-29T16:43:16.581Z,2026-09-29T16:43:16.677Z,2026-09-29T10:43:16.677-06:00,1.85,37,False,POSHOLD,1,0,-1.651837,0.236059,-142.595444,-0.007448,-0.009167,0.017762,39.0187777,-104.8936053,2165.99,-2.328,0.0,0.0,0.0,217.41,0.0,0.0,39.0187777,-104.8936053,2165.89,0.01,243.43,31,6,0.72,1.28,0.007,0.007,-0.002,0,-0.039227,0.107873,-9.80665,0.002,0.0,0.0,20,-297,136,16.467,0.01,7,99,,1000,1000,1000,1000,0.019,0.021,0.023,0,0,0,831,0.0161,0.0023,0.0109,0.0011,784.945,46.11,-180.0,0.0,0.0,2026-09-29T16:43:16.572Z,0.002,9.664,0,792.0,0,16,89,3,2026-09-29T16:43:16.526Z,54.7,2026-09-29T16:43:16.577Z,3.9,2026-09-29T16:43:16.578Z,3.2,-6,10,-998,0,-1,0,2026-09-29T16:43:16.574Z,6.7,2026-09-29T16:43:16.576Z,4.8,2026-09-29T16:43:16.573Z,8.0,1790700196678271,1449477,2026-09-29T16:43:16.580Z,0.5,,,,4,,,1,2026-09-29T16:43:16.575Z,6.2,16.467,0.01,99,32.6,0.0,0,1198652463,2026-09-29T16:43:16.575Z,5.9,5.243,0.016,1,2026-09-29T16:43:16.580Z,1.2,,,,,,,,,,,,,,,,,,,217,2165.99,2026-09-29T16:43:16.573Z,7.6,0,0,0,0,2026-09-29T16:43:16.574Z,7.1,1508,1514,1529,1493,255,2026-09-29T16:43:16.576Z,5.2,-0.0,0.0,0.0,0.0,0.0,2026-09-29T16:43:16.575Z,5.5,2026-09-29T16:43:16.580Z,0.9,2026-09-29T16:43:16.181Z,399.9,2026-09-29T16:43:16.181Z,400.2,2026-09-29T16:43:16.180Z,400.6,2026-09-29T16:43:16.581Z,0.2
2026-09-29T16:43:16.626Z,2026-09-29T16:43:16.722Z,2026-09-29T10:43:16.722-06:00,1.9,38,False,POSHOLD,1,0,-1.651264,0.236059,-142.594298,-0.0,-0.001719,0.001719,39.0187777,-104.8936053,2165.99,-2.328,0.0,0.0,0.0,217.41,0.0,0.0,39.0187777,-104.8936053,2165.89,0.01,243.43,31,6,0.72,1.28,0.007,0.007,-0.002,0,-0.039227,0.107873,-9.80665,0.002,0.0,0.0,20,-297,136,16.467,0.01,7,99,,1000,1000,1000,1000,0.019,0.021,0.023,0,0,0,831,0.0161,0.0023,0.0109,0.0011,784.945,46.11,-180.0,0.0,0.0,2026-09-29T16:43:16.622Z,0.002,4.956,0,842.0,0,16,89,3,2026-09-29T16:43:16.526Z,100.0,2026-09-29T16:43:16.623Z,2.6,2026-09-29T16:43:16.624Z,2.0,-6,10,-998,0,-1,0,2026-09-29T16:43:16.574Z,52.0,2026-09-29T16:43:16.576Z,50.2,2026-09-29T16:43:16.573Z,53.3,1790700196678271,1449477,2026-09-29T16:43:16.580Z,45.9,,,,4,,,1,2026-09-29T16:43:16.575Z,51.5,16.467,0.01,99,32.6,0.0,0,1198652463,2026-09-29T16:43:16.575Z,51.2,5.243,0.016,1,2026-09-29T16:43:16.580Z,46.5,,,,,,,,,,,,,,,,,,,217,2165.99,2026-09-29T16:43:16.573Z,53.0,0,0,0,0,2026-09-29T16:43:16.574Z,52.4,1508,1514,1529,1493,255,2026-09-29T16:43:16.576Z,50.5,-0.0,0.0,0.0,0.0,0.0,2026-09-29T16:43:16.575Z,50.9,2026-09-29T16:43:16.580Z,46.2,2026-09-29T16:43:16.181Z,445.3,2026-09-29T16:43:16.181Z,445.6,2026-09-29T16:43:16.180Z,445.9,2026-09-29T16:43:16.581Z,45.6
2026-09-29T16:43:16.679Z,2026-09-29T16:43:16.775Z,2026-09-29T10:43:16.775-06:00,1.95,39,False,POSHOLD,1,0,-1.650691,0.235486,-142.594871,-0.001146,-0.024064,0.002292,39.0187777,-104.8936053,2165.98,-2.331,0.0,0.0,0.0,217.41,0.0,0.0,39.0187777,-104.8936053,2165.89,0.01,243.43,31,6,0.72,1.28,0.007,0.007,-0.002,0,-0.02942,0.098066,-9.816457,0.002,0.0,0.0,19,-297,136,16.454,0.01,7,99,,1000,1000,1000,1000,0.021,0.023,0.023,0,0,0,831,0.0071,0.0019,0.0018,0.0018,784.936,46.11,-180.0,0.0,0.0,2026-09-29T16:43:16.672Z,0.002,8.038,0,892.0,0,16,89,3,2026-09-29T16:43:16.526Z,153.1,2026-09-29T16:43:16.676Z,3.6,2026-09-29T16:43:16.676Z,2.9,-7,10,-999,0,0,0,2026-09-29T16:43:16.674Z,5.0,2026-09-29T16:43:16.576Z,103.3,2026-09-29T16:43:16.673Z,6.4,1790700196678271,1449477,2026-09-29T16:43:16.580Z,99.0,,,,4,,,1,2026-09-29T16:43:16.675Z,4.5,16.467,0.01,99,32.6,0.0,0,1198652463,2026-09-29T16:43:16.575Z,104.3,5.243,0.016,1,2026-09-29T16:43:16.580Z,99.6,,,,,,,,,,,,,,,,,,,217,2165.98,2026-09-29T16:43:16.673Z,6.0,0,0,0,0,2026-09-29T16:43:16.674Z,5.4,1508,1514,1529,1493,255,2026-09-29T16:43:16.576Z,103.6,-0.0,0.0,0.0,0.0,0.0,2026-09-29T16:43:16.575Z,104.0,2026-09-29T16:43:16.580Z,99.3,2026-09-29T16:43:16.679Z,0.2,2026-09-29T16:43:16.679Z,0.6,2026-09-29T16:43:16.678Z,0.9,2026-09-29T16:43:16.581Z,98.7
2026-09-29T16:43:16.726Z,2026-09-29T16:43:16.822Z,2026-09-29T10:43:16.822-06:00,2.0,40,False,POSHOLD,1,0,-1.650118,0.235486,-142.593152,-0.00573,0.005157,0.028075,39.0187777,-104.8936053,2165.98,-2.331,0.0,0.0,0.0,217.41,0.0,0.0,39.0187777,-104.8936053,2165.89,0.01,243.43,31,6,0.72,1.28,0.007,0.007,-0.002,0,-0.02942,0.098066,-9.816457,0.002,0.0,0.0,19,-297,136,16.454,0.01,7,99,,1000,1000,1000,1000,0.021,0.023,0.023,0,0,0,831,0.0071,0.0019,0.0018,0.0018,784.936,46.11,-180.0,0.0,0.0,2026-09-29T16:43:16.722Z,0.002,4.888,0,942.0,0,16,89,3,2026-09-29T16:43:16.526Z,200.0,2026-09-29T16:43:16.723Z,2.6,2026-09-29T16:43:16.724Z,2.0,-7,10,-999,0,0,0,2026-09-29T16:43:16.674Z,51.9,2026-09-29T16:43:16.576Z,150.1,2026-09-29T16:43:16.673Z,53.2,1790700196678271,1449477,2026-09-29T16:43:16.580Z,145.8,,,,4,,,1,2026-09-29T16:43:16.675Z,51.4,16.467,0.01,99,32.6,0.0,0,1198652463,2026-09-29T16:43:16.575Z,151.1,5.243,0.016,1,2026-09-29T16:43:16.580Z,146.5,,,,,,,,,,,,,,,,,,,217,2165.98,2026-09-29T16:43:16.673Z,52.8,0,0,0,0,2026-09-29T16:43:16.674Z,52.3,1508,1514,1529,1493,255,2026-09-29T16:43:16.576Z,150.5,-0.0,0.0,0.0,0.0,0.0,2026-09-29T16:43:16.575Z,150.8,2026-09-29T16:43:16.580Z,146.1,2026-09-29T16:43:16.679Z,47.1,2026-09-29T16:43:16.679Z,47.4,2026-09-29T16:43:16.678Z,47.7,2026-09-29T16:43:16.581Z,145.5
2026-09-29T16:43:16.779Z,2026-09-29T16:43:16.875Z,2026-09-29T10:43:16.875-06:00,2.05,41,False,POSHOLD,1,0,-1.650118,0.235486,-142.592006,-0.002865,0.005157,-0.002292,39.0187777,-104.8936053,2165.98,-2.333,0.0,0.0,0.0,217.41,0.0,0.0,39.0187777,-104.8936053,2165.89,0.0,45.0,31,6,0.72,1.28,0.007,0.007,-0.003,0,-0.039227,0.098066,-9.816457,0.001,0.0,0.0,20,-297,136,16.46,0.01,7,99,,1000,1000,1000,1000,0.021,0.023,0.023,0,0,0,831,0.0071,0.0019,0.0018,0.0018,784.936,46.11,-180.0,0.0,0.0,2026-09-29T16:43:16.772Z,0.002,8.376,0,992.0,0,16,89,3,2026-09-29T16:43:16.526Z,253.5,2026-09-29T16:43:16.777Z,2.6,2026-09-29T16:43:16.778Z,1.9,-7,10,-999,0,0,0,2026-09-29T16:43:16.774Z,5.4,2026-09-29T16:43:16.776Z,3.6,2026-09-29T16:43:16.773Z,6.8,1790700196678271,1449477,2026-09-29T16:43:16.580Z,199.3,,,,4,,,1,2026-09-29T16:43:16.775Z,4.9,16.46,0.01,99,31.9,0.0,0,1198652463,2026-09-29T16:43:16.775Z,4.6,5.243,0.016,1,2026-09-29T16:43:16.580Z,199.9,,,,,,,,,,,,,,,,,,,217,2165.98,2026-09-29T16:43:16.773Z,6.4,0,0,0,0,2026-09-29T16:43:16.774Z,5.8,1508,1514,1529,1493,255,2026-09-29T16:43:16.776Z,3.9,-0.0,0.0,0.0,0.0,0.0,2026-09-29T16:43:16.775Z,4.3,2026-09-29T16:43:16.580Z,199.6,2026-09-29T16:43:16.679Z,100.6,2026-09-29T16:43:16.679Z,100.9,2026-09-29T16:43:16.678Z,101.2,2026-09-29T16:43:16.581Z,199.0
2026-09-29T16:43:16.827Z,2026-09-29T16:43:16.923Z,2026-09-29T10:43:16.923-06:00,2.1,42,False,POSHOLD,1,0,-1.6484,0.236632,-142.590288,0.003438,0.022918,0.003438,39.0187777,-104.8936053,2165.98,-2.333,0.0,0.0,0.0,217.41,0.0,0.0,39.0187777,-104.8936053,2165.89,0.0,45.0,31,6,0.72,1.28,0.007,0.007,-0.003,0,-0.039227,0.098066,-9.816457,0.002,0.0,0.0,20,-297,136,16.46,0.01,7,99,,1000,1000,1000,1000,0.021,0.023,0.023,0,0,0,831,0.0071,0.0019,0.0018,0.0018,784.936,46.11,-180.0,0.0,0.0,2026-09-29T16:43:16.822Z,0.002,5.589,0,-4.4,0,16,89,3,2026-09-29T16:43:16.526Z,300.7,2026-09-29T16:43:16.823Z,3.3,2026-09-29T16:43:16.824Z,2.7,-7,10,-999,0,0,0,2026-09-29T16:43:16.774Z,52.6,2026-09-29T16:43:16.776Z,50.8,2026-09-29T16:43:16.773Z,54.0,1790700196678271,1449477,2026-09-29T16:43:16.580Z,246.5,,,,4,,,1,2026-09-29T16:43:16.775Z,52.1,16.46,0.01,99,31.9,0.0,0,1198652463,2026-09-29T16:43:16.775Z,51.8,5.243,0.016,1,2026-09-29T16:43:16.580Z,247.1,,,,,,,,,,,,,,,,,,,217,2165.98,2026-09-29T16:43:16.773Z,53.6,0,0,0,0,2026-09-29T16:43:16.774Z,53.1,1508,1514,1529,1493,255,2026-09-29T16:43:16.776Z,51.1,-0.0,0.0,0.0,0.0,0.0,2026-09-29T16:43:16.775Z,51.5,2026-09-29T16:43:16.580Z,246.8,2026-09-29T16:43:16.679Z,147.8,2026-09-29T16:43:16.679Z,148.1,2026-09-29T16:43:16.678Z,148.4,2026-09-29T16:43:16.581Z,246.2
2026-09-29T16:43:16.878Z,2026-09-29T16:43:16.974Z,2026-09-29T10:43:16.974-06:00,2.15,43,False,POSHOLD,1,0,-1.648973,0.235486,-142.590288,0.001719,-0.008021,-0.007448,39.0187777,-104.8936053,2165.98,-2.333,0.0,0.0,0.0,217.41,0.0,0.0,39.0187777,-104.8936053,2165.89,0.0,45.0,31,6,0.72,1.28,0.007,0.007,-0.003,0,-0.02942,0.098066,-9.80665,0.002,0.0,0.0,20,-297,136,16.447,0.01,7,99,,1000,1000,1000,1000,0.021,0.023,0.023,0,0,0,831,0.0071,0.0019,0.0018,0.0018,784.936,46.11,-180.0,0.0,0.0,2026-09-29T16:43:16.872Z,0.002,7.027,0,45.6,0,16,89,3,2026-09-29T16:43:16.526Z,352.1,2026-09-29T16:43:16.876Z,2.6,2026-09-29T16:43:16.876Z,2.0,-7,10,-999,0,-1,0,2026-09-29T16:43:16.874Z,4.0,2026-09-29T16:43:16.776Z,102.2,2026-09-29T16:43:16.873Z,5.4,1790700196678271,1449477,2026-09-29T16:43:16.580Z,298.0,,,,4,,,1,2026-09-29T16:43:16.875Z,3.6,16.46,0.01,99,31.9,0.0,0,1198652463,2026-09-29T16:43:16.775Z,103.3,5.243,0.016,1,2026-09-29T16:43:16.580Z,298.6,,,,,,,,,,,,,,,,,,,217,2165.98,2026-09-29T16:43:16.873Z,5.0,0,0,0,0,2026-09-29T16:43:16.874Z,4.5,1508,1514,1529,1493,255,2026-09-29T16:43:16.776Z,102.6,-0.0,0.0,0.0,0.0,0.0,2026-09-29T16:43:16.775Z,102.9,2026-09-29T16:43:16.580Z,298.3,2026-09-29T16:43:16.679Z,199.2,2026-09-29T16:43:16.679Z,199.5,2026-09-29T16:43:16.678Z,199.9,2026-09-29T16:43:16.581Z,297.7
2026-09-29T16:43:16.926Z,2026-09-29T16:43:17.022Z,2026-09-29T10:43:17.022-06:00,2.2,44,False,POSHOLD,1,0,-1.647827,0.23434,-142.590861,0.012605,-0.004584,-0.006875,39.0187777,-104.8936053,2165.98,-2.333,0.0,0.0,0.0,217.41,0.0,0.0,39.0187777,-104.8936053,2165.89,0.0,45.0,31,6,0.72,1.28,0.007,0.007,-0.003,0,-0.039227,0.098066,-9.816457,0.001,0.0,0.0,20,-297,136,16.447,0.01,7,99,,1000,1000,1000,1000,0.021,0.023,0.023,0,0,0,831,0.0071,0.0019,0.0018,0.0018,784.936,46.11,-180.0,0.0,0.0,2026-09-29T16:43:16.922Z,0.002,4.967,0,95.6,0,16,89,3,2026-09-29T16:43:16.526Z,400.1,2026-09-29T16:43:16.924Z,2.6,2026-09-29T16:43:16.924Z,2.0,-7,10,-999,0,-1,0,2026-09-29T16:43:16.874Z,52.0,2026-09-29T16:43:16.776Z,150.2,2026-09-29T16:43:16.873Z,53.3,1790700196678271,1449477,2026-09-29T16:43:16.580Z,345.9,,,,4,,,1,2026-09-29T16:43:16.875Z,51.5,16.46,0.01,99,31.9,0.0,0,1198652463,2026-09-29T16:43:16.775Z,151.2,5.243,0.016,1,2026-09-29T16:43:16.580Z,346.5,,,,,,,,,,,,,,,,,,,217,2165.98,2026-09-29T16:43:16.873Z,52.9,0,0,0,0,2026-09-29T16:43:16.874Z,52.4,1508,1514,1529,1493,255,2026-09-29T16:43:16.776Z,150.5,-0.0,0.0,0.0,0.0,0.0,2026-09-29T16:43:16.775Z,150.9,2026-09-29T16:43:16.580Z,346.2,2026-09-29T16:43:16.679Z,247.2,2026-09-29T16:43:16.679Z,247.5,2026-09-29T16:43:16.678Z,247.8,2026-09-29T16:43:16.581Z,345.6
2026-09-29T16:43:16.980Z,2026-09-29T16:43:17.076Z,2026-09-29T10:43:17.076-06:00,2.25,45,False,POSHOLD,1,0,-1.648973,0.23434,-142.589142,-0.008021,0.014324,0.057869,39.0187777,-104.8936053,2165.98,-2.333,0.0,0.0,0.0,217.41,0.0,0.0,39.0187777,-104.8936053,2165.89,0.01,203.62,31,6,0.72,1.28,0.006,0.007,-0.003,0,-0.02942,0.098066,-9.80665,0.001,0.0,0.0,19,-297,136,16.445,0.01,7,99,,1000,1000,1000,1000,0.021,0.023,0.023,0,0,0,831,0.0071,0.0019,0.0018,0.0018,784.936,46.11,-180.0,0.0,0.0,2026-09-29T16:43:16.972Z,0.002,8.476,0,145.6,0,16,89,3,2026-09-29T16:43:16.526Z,453.6,2026-09-29T16:43:16.977Z,2.6,2026-09-29T16:43:16.978Z,1.9,-6,9,-999,0,0,0,2026-09-29T16:43:16.974Z,5.4,2026-09-29T16:43:16.976Z,3.6,2026-09-29T16:43:16.973Z,6.8,1790700196678271,1449477,2026-09-29T16:43:16.580Z,399.4,,,,4,,,1,2026-09-29T16:43:16.975Z,5.0,16.445,0.01,99,31.8,0.0,0,1198652463,2026-09-29T16:43:16.975Z,4.6,5.243,0.016,1,2026-09-29T16:43:16.580Z,400.0,,,,,,,,,,,,,,,,,,,217,2165.98,2026-09-29T16:43:16.973Z,6.4,0,0,0,0,2026-09-29T16:43:16.974Z,5.9,1508,1514,1529,1493,255,2026-09-29T16:43:16.976Z,4.0,-0.0,0.0,0.0,0.0,0.0,2026-09-29T16:43:16.975Z,4.3,2026-09-29T16:43:16.580Z,399.7,2026-09-29T16:43:16.679Z,300.7,2026-09-29T16:43:16.679Z,301.0,2026-09-29T16:43:16.678Z,301.3,2026-09-29T16:43:16.581Z,399.1
2026-09-29T16:43:17.026Z,2026-09-29T16:43:17.122Z,2026-09-29T10:43:17.122-06:00,2.3,46,False,POSHOLD,1,0,-1.648973,0.233767,-142.587996,0.009167,-0.019481,0.014897,39.0187777,-104.8936053,2165.98,-2.333,0.0,0.0,0.0,217.41,0.0,0.0,39.0187777,-104.8936053,2165.89,0.01,203.62,31,6,0.72,1.28,0.006,0.007,-0.003,0,-0.039227,0.08826,-9.816457,0.002,0.0,0.0,19,-297,136,16.445,0.01,7,99,,1000,1000,1000,1000,0.021,0.023,0.023,0,0,0,831,0.0071,0.0019,0.0018,0.0018,784.936,46.11,-180.0,0.0,0.0,2026-09-29T16:43:17.022Z,0.002,4.994,0,195.6,0,16,89,3,2026-09-29T16:43:16.526Z,500.1,2026-09-29T16:43:17.024Z,2.6,2026-09-29T16:43:17.024Z,2.0,-6,9,-999,0,0,0,2026-09-29T16:43:16.974Z,52.0,2026-09-29T16:43:16.976Z,50.1,2026-09-29T16:43:16.973Z,53.3,1790700196678271,1449477,2026-09-29T16:43:16.580Z,445.9,,,,4,,,1,2026-09-29T16:43:16.975Z,51.5,16.445,0.01,99,31.8,0.0,0,1198652463,2026-09-29T16:43:16.975Z,51.2,5.243,0.016,1,2026-09-29T16:43:16.580Z,446.6,,,,,,,,,,,,,,,,,,,217,2165.98,2026-09-29T16:43:16.973Z,52.9,0,0,0,0,2026-09-29T16:43:16.974Z,52.4,1508,1514,1529,1493,255,2026-09-29T16:43:16.976Z,50.5,-0.0,0.0,0.0,0.0,0.0,2026-09-29T16:43:16.975Z,50.8,2026-09-29T16:43:16.580Z,446.3,2026-09-29T16:43:16.679Z,347.2,2026-09-29T16:43:16.679Z,347.5,2026-09-29T16:43:16.678Z,347.8,2026-09-29T16:43:16.581Z,445.6
2026-09-29T16:43:17.078Z,2026-09-29T16:43:17.174Z,2026-09-29T10:43:17.174-06:00,2.35,47,False,POSHOLD,1,0,-1.647827,0.233767,-142.588569,-0.004011,0.017189,-0.046983,39.0187777,-104.8936053,2165.98,-2.335,0.0,0.0,0.0,217.42,0.0,0.0,39.0187777,-104.8936053,2165.89,0.01,203.62,31,6,0.72,1.28,0.006,0.007,-0.003,0,-0.039227,0.107873,-9.80665,0.002,0.0,0.0,21,-297,136,16.449,0.01,7,99,,1000,1000,1000,1000,0.021,0.023,0.023,0,0,0,831,0.0071,0.0019,0.0018,0.0018,784.936,46.11,-180.0,0.0,0.0,2026-09-29T16:43:17.072Z,0.002,7.048,0,245.6,0,16,89,3,2026-09-29T16:43:16.526Z,552.1,2026-09-29T16:43:17.076Z,2.6,2026-09-29T16:43:17.076Z,2.0,-7,10,-999,0,0,0,2026-09-29T16:43:17.074Z,4.0,2026-09-29T16:43:16.976Z,102.2,2026-09-29T16:43:17.073Z,5.4,1790700196678271,1449477,2026-09-29T16:43:16.580Z,498.0,,,,4,,,1,2026-09-29T16:43:17.075Z,3.5,16.445,0.01,99,31.8,0.0,0,1198652463,2026-09-29T16:43:16.975Z,103.2,5.243,0.016,1,2026-09-29T16:43:16.580Z,498.6,,,,,,,,,,,,,,,,,,,217,2165.98,2026-09-29T16:43:17.073Z,5.0,0,0,0,0,2026-09-29T16:43:17.074Z,4.5,1508,1514,1529,1493,255,2026-09-29T16:43:16.976Z,102.5,-0.0,0.0,0.0,0.0,0.0,2026-09-29T16:43:16.975Z,102.9,2026-09-29T16:43:16.580Z,498.3,2026-09-29T16:43:16.679Z,399.3,2026-09-29T16:43:16.679Z,399.6,2026-09-29T16:43:16.678Z,399.9,2026-09-29T16:43:16.581Z,497.7
2026-09-29T16:43:17.126Z,2026-09-29T16:43:17.222Z,2026-09-29T10:43:17.222-06:00,2.4,48,False,POSHOLD,1,0,-1.648973,0.23434,-142.58685,-0.014324,0.013178,0.013178,39.0187777,-104.8936053,2165.98,-2.335,0.0,0.0,0.0,217.42,0.0,0.0,39.0187777,-104.8936053,2165.89,0.01,203.62,31,6,0.72,1.28,0.006,0.007,-0.003,0,-0.019613,0.098066,-9.80665,0.002,0.001,0.0,21,-297,136,16.449,0.01,7,99,,1000,1000,1000,1000,0.021,0.023,0.023,0,0,0,831,0.0071,0.0019,0.0018,0.0018,784.936,46.11,-180.0,0.0,0.0,2026-09-29T16:43:17.122Z,0.002,4.922,0,295.6,0,16,89,3,2026-09-29T16:43:16.526Z,600.0,2026-09-29T16:43:17.123Z,2.6,2026-09-29T16:43:17.124Z,2.0,-7,10,-999,0,0,0,2026-09-29T16:43:17.074Z,51.9,2026-09-29T16:43:16.976Z,150.1,2026-09-29T16:43:17.073Z,53.3,1790700196678271,1449477,2026-09-29T16:43:16.580Z,545.9,,,,4,,,1,2026-09-29T16:43:17.075Z,51.4,16.445,0.01,99,31.8,0.0,0,1198652463,2026-09-29T16:43:16.975Z,151.1,5.243,0.016,1,2026-09-29T16:43:16.580Z,546.5,,,,,,,,,,,,,,,,,,,217,2165.98,2026-09-29T16:43:17.073Z,52.8,0,0,0,0,2026-09-29T16:43:17.074Z,52.3,1508,1514,1529,1493,255,2026-09-29T16:43:16.976Z,150.4,-0.0,0.0,0.0,0.0,0.0,2026-09-29T16:43:16.975Z,150.8,2026-09-29T16:43:16.580Z,546.2,2026-09-29T16:43:16.679Z,447.1,2026-09-29T16:43:16.679Z,447.4,2026-09-29T16:43:16.678Z,447.8,2026-09-29T16:43:16.581Z,545.6
2026-09-29T16:43:17.181Z,2026-09-29T16:43:17.277Z,2026-09-29T10:43:17.277-06:00,2.45,49,False,POSHOLD,1,0,-1.6484,0.233767,-142.585704,0.00974,-0.013751,0.026929,39.0187777,-104.8936053,2165.98,-2.337,0.0,0.0,0.0,217.42,0.0,0.0,39.0187777,-104.8936053,2165.89,0.0,21.8,31,6,0.72,1.28,0.006,0.007,-0.003,0,-0.049033,0.098066,-9.816457,0.002,0.0,0.0,20,-297,136,16.437,0.01,7,99,,1000,1000,1000,1000,0.021,0.022,0.022,0,0,0,831,0.0135,0.0022,0.0192,0.0001,784.954,46.11,-180.0,0.0,0.0,2026-09-29T16:43:17.172Z,0.003,9.675,0,345.6,0,16,89,3,2026-09-29T16:43:16.526Z,654.7,2026-09-29T16:43:17.177Z,3.7,2026-09-29T16:43:17.178Z,2.9,-7,11,-998,0,-1,0,2026-09-29T16:43:17.174Z,6.5,2026-09-29T16:43:17.176Z,4.6,2026-09-29T16:43:17.173Z,7.9,1790700196678271,1449477,2026-09-29T16:43:16.580Z,600.6,,,,4,,,1,2026-09-29T16:43:17.175Z,6.0,16.437,0.01,99,31.6,0.0,0,1198652463,2026-09-29T16:43:17.175Z,5.7,5.243,0.016,1,2026-09-29T16:43:16.580Z,601.2,,,,,,,,,,,,,,,,,,,217,2165.98,2026-09-29T16:43:17.173Z,7.4,0,0,0,0,2026-09-29T16:43:17.174Z,6.9,1508,1514,1529,1493,255,2026-09-29T16:43:17.176Z,5.0,-0.0,0.0,0.0,0.0,0.0,2026-09-29T16:43:17.175Z,5.3,2026-09-29T16:43:16.580Z,600.9,2026-09-29T16:43:17.181Z,0.2,2026-09-29T16:43:17.180Z,0.6,2026-09-29T16:43:17.180Z,0.9,2026-09-29T16:43:16.581Z,600.3
2026-09-29T16:43:17.227Z,2026-09-29T16:43:17.323Z,2026-09-29T10:43:17.323-06:00,2.5,50,False,POSHOLD,1,0,-1.647827,0.233194,-142.585704,0.04641,0.011459,-0.005157,39.0187777,-104.8936053,2165.98,-2.337,0.0,0.0,0.0,217.42,0.0,0.0,39.0187777,-104.8936053,2165.89,0.0,21.8,31,6,0.72,1.28,0.006,0.007,-0.003,0,-0.02942,0.11768,-9.826263,0.001,0.0,0.0,20,-297,136,16.437,0.01,7,99,,1000,1000,1000,1000,0.021,0.022,0.022,0,0,0,831,0.0135,0.0022,0.0192,0.0001,784.954,46.11,-180.0,0.0,0.0,2026-09-29T16:43:17.222Z,0.003,7.003,0,395.6,0,16,89,3,2026-09-29T16:43:16.526Z,701.6,2026-09-29T16:43:17.224Z,3.7,2026-09-29T16:43:17.225Z,2.8,-7,11,-998,0,-1,0,2026-09-29T16:43:17.174Z,53.4,2026-09-29T16:43:17.176Z,51.5,2026-09-29T16:43:17.173Z,54.7,1790700196678271,1449477,2026-09-29T16:43:16.580Z,647.5,,,,4,,,1,2026-09-29T16:43:17.175Z,52.9,16.437,0.01,99,31.6,0.0,0,1198652463,2026-09-29T16:43:17.175Z,52.5,5.243,0.016,1,2026-09-29T16:43:16.580Z,648.1,,,,,,,,,,,,,,,,,,,217,2165.98,2026-09-29T16:43:17.173Z,54.3,0,0,0,0,2026-09-29T16:43:17.174Z,53.8,1508,1514,1529,1493,255,2026-09-29T16:43:17.176Z,51.9,-0.0,0.0,0.0,0.0,0.0,2026-09-29T16:43:17.175Z,52.2,2026-09-29T16:43:16.580Z,647.8,2026-09-29T16:43:17.181Z,47.1,2026-09-29T16:43:17.180Z,47.4,2026-09-29T16:43:17.180Z,47.8,2026-09-29T16:43:16.581Z,647.2
2026-09-29T16:43:17.280Z,2026-09-29T16:43:17.376Z,2026-09-29T10:43:17.376-06:00,2.55,51,False,POSHOLD,1,0,-1.648973,0.232048,-142.585131,-0.039534,-0.014324,-0.014897,39.0187777,-104.8936053,2165.97,-2.34,0.0,0.0,0.0,217.42,0.0,0.0,39.0187777,-104.8936053,2165.89,0.0,21.8,31,6,0.72,1.28,0.006,0.007,-0.003,0,-0.039227,0.098066,-9.816457,0.002,0.0,0.0,20,-297,136,16.436,0.01,7,99,,1000,1000,1000,1000,0.021,0.022,0.022,0,0,0,831,0.0135,0.0022,0.0192,0.0001,784.954,46.11,-180.0,0.0,0.0,2026-09-29T16:43:17.272Z,0.003,9.84,0,445.6,0,16,89,3,2026-09-29T16:43:16.526Z,754.4,2026-09-29T16:43:17.277Z,3.7,2026-09-29T16:43:17.278Z,2.7,-6,11,-999,0,-1,0,2026-09-29T16:43:17.275Z,5.7,2026-09-29T16:43:17.176Z,104.3,2026-09-29T16:43:17.273Z,7.5,1790700196678271,1449477,2026-09-29T16:43:16.580Z,700.3,,,,4,,,1,2026-09-29T16:43:17.275Z,5.0,16.437,0.01,99,31.6,0.0,0,1198652463,2026-09-29T16:43:17.175Z,105.4,5.243,0.016,1,2026-09-29T16:43:16.580Z,700.9,,,,,,,,,,,,,,,,,,,217,2165.97,2026-09-29T16:43:17.273Z,7.0,0,0,0,0,2026-09-29T16:43:17.274Z,6.3,1508,1514,1529,1493,255,2026-09-29T16:43:17.176Z,104.7,-0.0,0.0,0.0,0.0,0.0,2026-09-29T16:43:17.175Z,105.1,2026-09-29T16:43:16.580Z,700.6,2026-09-29T16:43:17.181Z,100.0,2026-09-29T16:43:17.180Z,100.3,2026-09-29T16:43:17.180Z,100.6,2026-09-29T16:43:16.581Z,700.0
2026-09-29T16:43:17.327Z,2026-09-29T16:43:17.423Z,2026-09-29T10:43:17.423-06:00,2.6,52,False,POSHOLD,1,0,-1.648973,0.232621,-142.583412,-0.020626,-0.000573,0.014324,39.0187777,-104.8936053,2165.97,-2.34,0.0,0.0,0.0,217.42,0.0,0.0,39.0187777,-104.8936053,2165.89,0.0,21.8,31,6,0.72,1.28,0.006,0.007,-0.003,0,-0.02942,0.098066,-9.80665,0.001,0.0,0.0,20,-297,136,16.436,0.01,7,99,,1000,1000,1000,1000,0.021,0.022,0.022,0,0,0,831,0.0135,0.0022,0.0192,0.0001,784.954,46.11,-180.0,0.0,0.0,2026-09-29T16:43:17.322Z,0.002,7.05,0,495.6,0,16,89,3,2026-09-29T16:43:16.526Z,801.5,2026-09-29T16:43:17.324Z,3.7,2026-09-29T16:43:17.325Z,2.8,-6,11,-999,0,-1,0,2026-09-29T16:43:17.275Z,52.7,2026-09-29T16:43:17.176Z,151.4,2026-09-29T16:43:17.273Z,54.6,1790700196678271,1449477,2026-09-29T16:43:16.580Z,747.3,,,,4,,,1,2026-09-29T16:43:17.275Z,52.1,16.437,0.01,99,31.6,0.0,0,1198652463,2026-09-29T16:43:17.175Z,152.4,5.243,0.016,1,2026-09-29T16:43:16.580Z,748.0,,,,,,,,,,,,,,,,,,,217,2165.97,2026-09-29T16:43:17.273Z,54.0,0,0,0,0,2026-09-29T16:43:17.274Z,53.3,1508,1514,1529,1493,255,2026-09-29T16:43:17.176Z,151.7,-0.0,0.0,0.0,0.0,0.0,2026-09-29T16:43:17.175Z,152.1,2026-09-29T16:43:16.580Z,747.6,2026-09-29T16:43:17.181Z,147.0,2026-09-29T16:43:17.180Z,147.3,2026-09-29T16:43:17.180Z,147.6,2026-09-29T16:43:16.581Z,747.0
2026-09-29T16:43:17.383Z,2026-09-29T16:43:17.479Z,2026-09-29T10:43:17.479-06:00,2.65,53,False,POSHOLD,1,0,-1.650118,0.233767,-142.582839,-0.036096,0.017762,-0.014897,39.0187777,-104.8936053,2165.97,-2.342,0.0,0.0,0.0,217.42,0.0,0.0,39.0187777,-104.8936053,2165.89,0.01,145.0,31,6,0.72,1.28,0.006,0.007,-0.003,0,-0.039227,0.098066,-9.80665,0.002,0.0,0.0,20,-297,136,16.45,0.01,7,99,,1000,1000,1000,1000,0.021,0.022,0.022,0,0,0,831,0.0135,0.0022,0.0192,0.0001,784.954,46.11,-180.0,0.0,0.0,2026-09-29T16:43:17.372Z,0.004,12.148,0,545.7,0,16,89,3,2026-09-29T16:43:16.526Z,856.8,2026-09-29T16:43:17.379Z,3.8,2026-09-29T16:43:17.380Z,2.9,-7,10,-1000,0,0,0,2026-09-29T16:43:17.375Z,7.9,2026-09-29T16:43:17.378Z,5.1,2026-09-29T16:43:17.373Z,9.7,1790700196678271,1449477,2026-09-29T16:43:16.580Z,802.7,,,,4,,,1,2026-09-29T16:43:17.376Z,7.2,16.45,0.01,99,31.6,0.0,0,1198652463,2026-09-29T16:43:17.376Z,6.7,5.243,0.016,1,2026-09-29T16:43:16.580Z,803.3,,,,,,,,,,,,,,,,,,,217,2165.97,2026-09-29T16:43:17.374Z,9.2,0,0,0,0,2026-09-29T16:43:17.374Z,8.5,1508,1514,1529,1493,255,2026-09-29T16:43:17.377Z,5.7,-0.0,0.0,0.0,0.0,0.0,2026-09-29T16:43:17.377Z,6.3,2026-09-29T16:43:16.580Z,803.0,2026-09-29T16:43:17.181Z,202.4,2026-09-29T16:43:17.180Z,202.7,2026-09-29T16:43:17.180Z,203.0,2026-09-29T16:43:16.581Z,802.4
2026-09-29T16:43:17.428Z,2026-09-29T16:43:17.524Z,2026-09-29T10:43:17.524-06:00,2.7,54,False,POSHOLD,1,0,-1.650691,0.233767,-142.581693,-0.012032,0.020054,0.033805,39.0187777,-104.8936053,2165.97,-2.342,0.0,0.0,0.0,217.42,0.0,0.0,39.0187777,-104.8936053,2165.89,0.01,145.0,31,6,0.72,1.28,0.006,0.007,-0.003,0,-0.039227,0.107873,-9.816457,0.002,0.0,0.0,20,-297,136,16.45,0.01,7,99,,1000,1000,1000,1000,0.021,0.022,0.022,0,0,0,831,0.0135,0.0022,0.0192,0.0001,784.954,46.11,-180.0,0.0,0.0,2026-09-29T16:43:17.422Z,0.004,7.022,0,595.7,0,16,89,3,2026-09-29T16:43:16.526Z,901.6,2026-09-29T16:43:17.424Z,3.7,2026-09-29T16:43:17.425Z,2.8,-7,10,-1000,0,0,0,2026-09-29T16:43:17.375Z,52.7,2026-09-29T16:43:17.378Z,49.9,2026-09-29T16:43:17.373Z,54.5,1790700196678271,1449477,2026-09-29T16:43:16.580Z,847.5,,,,4,,,1,2026-09-29T16:43:17.376Z,52.0,16.45,0.01,99,31.6,0.0,0,1198652463,2026-09-29T16:43:17.376Z,51.5,5.243,0.016,1,2026-09-29T16:43:16.580Z,848.1,,,,,,,,,,,,,,,,,,,217,2165.97,2026-09-29T16:43:17.374Z,54.0,0,0,0,0,2026-09-29T16:43:17.374Z,53.3,1508,1514,1529,1493,255,2026-09-29T16:43:17.377Z,50.5,-0.0,0.0,0.0,0.0,0.0,2026-09-29T16:43:17.377Z,51.0,2026-09-29T16:43:16.580Z,847.8,2026-09-29T16:43:17.181Z,247.2,2026-09-29T16:43:17.180Z,247.5,2026-09-29T16:43:17.180Z,247.8,2026-09-29T16:43:16.581Z,847.2
2026-09-29T16:43:17.481Z,2026-09-29T16:43:17.577Z,2026-09-29T10:43:17.577-06:00,2.75,55,False,POSHOLD,1,0,-1.651264,0.233767,-142.58112,-0.010886,0.008021,-0.002865,39.0187777,-104.8936053,2165.97,-2.344,0.0,0.0,0.0,217.42,0.0,0.0,39.0187777,-104.8936053,2165.89,0.01,145.0,31,6,0.72,1.28,0.007,0.007,-0.003,0,-0.039227,0.098066,-9.80665,0.002,0.001,0.0,19,-297,136,16.446,0.01,7,99,,1000,1000,1000,1000,0.021,0.022,0.022,0,0,0,831,0.0135,0.0022,0.0192,0.0001,784.954,46.11,-180.0,0.0,0.0,2026-09-29T16:43:17.472Z,0.002,10.349,0,645.6,0,16,89,3,2026-09-29T16:43:16.526Z,955.0,2026-09-29T16:43:17.477Z,3.6,2026-09-29T16:43:17.478Z,2.7,-6,10,-999,0,0,0,2026-09-29T16:43:17.475Z,6.2,2026-09-29T16:43:17.378Z,103.2,2026-09-29T16:43:17.473Z,8.0,1790700196678271,1449477,2026-09-29T16:43:16.580Z,900.8,,,,4,,,1,2026-09-29T16:43:17.476Z,5.5,16.45,0.01,99,31.6,0.0,0,1198652463,2026-09-29T16:43:17.376Z,104.8,5.243,0.016,1,2026-09-29T16:43:16.580Z,901.4,,,,,,,,,,,,,,,,,,,217,2165.97,2026-09-29T16:43:17.474Z,7.5,0,0,0,0,2026-09-29T16:43:17.474Z,6.8,1508,1514,1529,1493,255,2026-09-29T16:43:17.377Z,103.8,-0.0,0.0,0.0,0.0,0.0,2026-09-29T16:43:17.377Z,104.4,2026-09-29T16:43:16.580Z,901.1,2026-09-29T16:43:17.181Z,300.5,2026-09-29T16:43:17.180Z,300.8,2026-09-29T16:43:17.180Z,301.1,2026-09-29T16:43:16.581Z,900.5
2026-09-29T16:43:17.528Z,2026-09-29T16:43:17.624Z,2026-09-29T10:43:17.624-06:00,2.8,56,False,POSHOLD,1,0,-1.651264,0.23434,-142.579974,-0.017762,0.004011,0.001719,39.0187777,-104.8936053,2165.97,-2.344,0.0,0.0,0.0,217.42,0.0,0.0,39.0187777,-104.8936053,2165.89,0.01,145.0,31,6,0.72,1.28,0.007,0.007,-0.003,0,-0.039227,0.107873,-9.816457,0.001,0.0,0.0,19,-297,136,16.446,0.01,7,99,,1000,1000,1000,1000,0.021,0.022,0.022,0,0,0,831,0.0135,0.0022,0.0192,0.0001,784.954,46.11,-180.0,0.0,0.0,2026-09-29T16:43:17.522Z,0.003,7.777,0,695.6,0,16,89,3,2026-09-29T16:43:17.527Z,0.9,2026-09-29T16:43:17.524Z,4.1,2026-09-29T16:43:17.525Z,3.2,-6,10,-999,0,0,0,2026-09-29T16:43:17.475Z,53.6,2026-09-29T16:43:17.378Z,150.6,2026-09-29T16:43:17.473Z,55.5,1790700196678271,1449477,2026-09-29T16:43:16.580Z,948.2,,,,4,,,1,2026-09-29T16:43:17.476Z,52.9,16.45,0.01,99,31.6,0.0,0,1198652463,2026-09-29T16:43:17.376Z,152.3,5.243,0.016,1,2026-09-29T16:43:16.580Z,948.9,,,,,,,,,,,,,,,,,,,217,2165.97,2026-09-29T16:43:17.474Z,54.9,0,0,0,0,2026-09-29T16:43:17.474Z,54.2,1508,1514,1529,1493,255,2026-09-29T16:43:17.377Z,151.2,-0.0,0.0,0.0,0.0,0.0,2026-09-29T16:43:17.377Z,151.8,2026-09-29T16:43:16.580Z,948.6,2026-09-29T16:43:17.181Z,347.9,2026-09-29T16:43:17.180Z,348.2,2026-09-29T16:43:17.180Z,348.5,2026-09-29T16:43:16.581Z,947.9
2026-09-29T16:43:17.584Z,2026-09-29T16:43:17.680Z,2026-09-29T10:43:17.680-06:00,2.85,57,False,POSHOLD,1,0,-1.650691,0.233767,-142.580547,0.007448,-0.017762,-0.021199,39.0187777,-104.8936053,2165.97,-2.346,0.0,0.0,0.0,217.42,0.0,0.0,39.0187777,-104.8936053,2165.88,0.01,213.69,31,6,0.72,1.28,0.007,0.007,-0.003,0,-0.039227,0.098066,-9.816457,0.002,0.001,0.0,20,-297,136,16.442,0.01,7,99,,1000,1000,1000,1000,0.021,0.022,0.022,0,0,0,831,0.0135,0.0022,0.0192,0.0001,784.954,46.11,-180.0,0.0,0.0,2026-09-29T16:43:17.572Z,0.004,13.917,0,745.6,0,16,89,3,2026-09-29T16:43:17.527Z,57.1,2026-09-29T16:43:17.579Z,5.5,2026-09-29T16:43:17.580Z,4.6,-7,10,-1000,0,0,0,2026-09-29T16:43:17.575Z,9.6,2026-09-29T16:43:17.578Z,6.9,2026-09-29T16:43:17.573Z,11.5,1790700197678250,1450477,2026-09-29T16:43:17.584Z,0.8,,,,4,,,1,2026-09-29T16:43:17.576Z,8.9,16.442,0.01,99,32.6,0.0,0,1198652463,2026-09-29T16:43:17.576Z,8.5,5.24,0.029,1,2026-09-29T16:43:17.583Z,1.7,,,,,,,,,,,,,,,,,,,217,2165.97,2026-09-29T16:43:17.574Z,10.9,0,0,0,0,2026-09-29T16:43:17.574Z,10.2,1508,1514,1529,1493,255,2026-09-29T16:43:17.577Z,7.5,-0.0,0.0,0.0,0.0,0.0,2026-09-29T16:43:17.577Z,8.0,2026-09-29T16:43:17.583Z,1.2,2026-09-29T16:43:17.181Z,404.0,2026-09-29T16:43:17.180Z,404.4,2026-09-29T16:43:17.180Z,404.7,2026-09-29T16:43:17.584Z,0.3
2026-09-29T16:43:17.627Z,2026-09-29T16:43:17.723Z,2026-09-29T10:43:17.723-06:00,2.9,58,False,POSHOLD,1,0,-1.651264,0.233767,-142.579974,-0.026356,0.001146,0.007448,39.0187777,-104.8936053,2165.97,-2.346,0.0,0.0,0.0,217.42,0.0,0.0,39.0187777,-104.8936053,2165.88,0.01,213.69,31,6,0.72,1.28,0.007,0.007,-0.003,0,-0.02942,0.107873,-9.80665,0.002,0.0,0.0,20,-297,136,16.442,0.01,7,99,,1000,1000,1000,1000,0.021,0.022,0.022,0,0,0,831,0.0135,0.0022,0.0192,0.0001,784.954,46.11,-180.0,0.0,0.0,2026-09-29T16:43:17.622Z,0.003,6.98,0,795.6,0,16,89,3,2026-09-29T16:43:17.527Z,100.2,2026-09-29T16:43:17.624Z,3.7,2026-09-29T16:43:17.625Z,2.8,-7,10,-1000,0,0,0,2026-09-29T16:43:17.575Z,52.7,2026-09-29T16:43:17.578Z,49.9,2026-09-29T16:43:17.573Z,54.6,1790700197678250,1450477,2026-09-29T16:43:17.584Z,43.8,,,,4,,,1,2026-09-29T16:43:17.576Z,52.0,16.442,0.01,99,32.6,0.0,0,1198652463,2026-09-29T16:43:17.576Z,51.5,5.24,0.029,1,2026-09-29T16:43:17.583Z,44.7,,,,,,,,,,,,,,,,,,,217,2165.97,2026-09-29T16:43:17.574Z,54.0,0,0,0,0,2026-09-29T16:43:17.574Z,53.3,1508,1514,1529,1493,255,2026-09-29T16:43:17.577Z,50.6,-0.0,0.0,0.0,0.0,0.0,2026-09-29T16:43:17.577Z,51.1,2026-09-29T16:43:17.583Z,44.3,2026-09-29T16:43:17.181Z,447.1,2026-09-29T16:43:17.180Z,447.4,2026-09-29T16:43:17.180Z,447.8,2026-09-29T16:43:17.584Z,43.4
2026-09-29T16:43:17.682Z,2026-09-29T16:43:17.778Z,2026-09-29T10:43:17.778-06:00,2.95,59,False,POSHOLD,1,0,-1.651264,0.233194,-142.579401,-0.022918,-0.014324,0.005157,39.0187777,-104.8936053,2165.97,-2.348,0.0,0.0,0.0,217.43,0.0,0.0,39.0187777,-104.8936053,2165.88,0.01,213.69,31,6,0.72,1.28,0.006,0.007,-0.003,0,-0.039227,0.107873,-9.816457,0.002,0.001,0.0,19,-297,136,16.443,0.01,7,99,,1000,1000,1000,1000,0.021,0.025,0.021,0,0,0,831,0.0086,0.0024,0.0079,0.0003,784.958,46.12,-180.0,0.0,0.0,2026-09-29T16:43:17.672Z,0.003,11.276,0,845.6,0,16,89,3,2026-09-29T16:43:17.527Z,154.5,2026-09-29T16:43:17.677Z,5.1,2026-09-29T16:43:17.678Z,4.1,-7,10,-1000,0,-1,0,2026-09-29T16:43:17.675Z,7.1,2026-09-29T16:43:17.578Z,104.3,2026-09-29T16:43:17.673Z,9.0,1790700197678250,1450477,2026-09-29T16:43:17.584Z,98.2,,,,4,,,1,2026-09-29T16:43:17.676Z,6.4,16.442,0.01,99,32.6,0.0,0,1198652463,2026-09-29T16:43:17.576Z,105.9,5.24,0.029,1,2026-09-29T16:43:17.583Z,99.1,,,,,,,,,,,,,,,,,,,217,2165.97,2026-09-29T16:43:17.674Z,8.4,0,0,0,0,2026-09-29T16:43:17.674Z,7.7,1508,1514,1529,1493,255,2026-09-29T16:43:17.577Z,104.9,-0.0,0.0,0.0,0.0,0.0,2026-09-29T16:43:17.577Z,105.4,2026-09-29T16:43:17.583Z,98.6,2026-09-29T16:43:17.682Z,0.3,2026-09-29T16:43:17.681Z,0.8,2026-09-29T16:43:17.681Z,1.3,2026-09-29T16:43:17.584Z,97.7
2026-09-29T16:43:17.727Z,2026-09-29T16:43:17.823Z,2026-09-29T10:43:17.823-06:00,3.0,60,False,POSHOLD,1,0,-1.651264,0.232621,-142.579974,-0.008594,-0.008021,-0.012032,39.0187777,-104.8936053,2165.97,-2.348,0.0,0.0,0.0,217.43,0.0,0.0,39.0187777,-104.8936053,2165.88,0.01,213.69,31,6,0.72,1.28,0.006,0.007,-0.003,0,-0.02942,0.08826,-9.816457,0.002,0.0,0.0,19,-297,136,16.443,0.01,7,99,,1000,1000,1000,1000,0.021,0.025,0.021,0,0,0,831,0.0086,0.0024,0.0079,0.0003,784.958,46.12,-180.0,0.0,0.0,2026-09-29T16:43:17.722Z,0.002,6.804,0,895.6,0,16,89,3,2026-09-29T16:43:17.527Z,200.0,2026-09-29T16:43:17.724Z,3.7,2026-09-29T16:43:17.725Z,2.8,-7,10,-1000,0,-1,0,2026-09-29T16:43:17.675Z,52.6,2026-09-29T16:43:17.578Z,149.8,2026-09-29T16:43:17.673Z,54.5,1790700197678250,1450477,2026-09-29T16:43:17.584Z,143.7,,,,4,,,1,2026-09-29T16:43:17.676Z,52.0,16.442,0.01,99,32.6,0.0,0,1198652463,2026-09-29T16:43:17.576Z,151.4,5.24,0.029,1,2026-09-29T16:43:17.583Z,144.6,,,,,,,,,,,,,,,,,,,217,2165.97,2026-09-29T16:43:17.674Z,53.9,0,0,0,0,2026-09-29T16:43:17.674Z,53.2,1508,1514,1529,1493,255,2026-09-29T16:43:17.577Z,150.4,-0.0,0.0,0.0,0.0,0.0,2026-09-29T16:43:17.577Z,150.9,2026-09-29T16:43:17.583Z,144.2,2026-09-29T16:43:17.682Z,45.9,2026-09-29T16:43:17.681Z,46.3,2026-09-29T16:43:17.681Z,46.8,2026-09-29T16:43:17.584Z,143.3
2026-09-29T16:43:17.784Z,2026-09-29T16:43:17.880Z,2026-09-29T10:43:17.880-06:00,3.05,61,False,POSHOLD,1,0,-1.651264,0.232621,-142.580547,0.00573,-0.018335,-0.023491,39.0187777,-104.8936053,2165.96,-2.352,0.0,0.0,0.0,217.43,0.0,0.0,39.0187777,-104.8936053,2165.89,0.01,25.2,31,6,0.72,1.28,0.006,0.007,-0.003,0,-0.02942,0.098066,-9.80665,0.002,0.0,0.0,20,-297,136,16.443,0.01,7,99,,1000,1000,1000,1000,0.021,0.025,0.021,0,0,0,831,0.0086,0.0024,0.0079,0.0003,784.958,46.12,-180.0,0.0,0.0,2026-09-29T16:43:17.772Z,0.002,13.219,0,945.6,0,0,0,0,2026-09-29T16:43:17.778Z,5.5,2026-09-29T16:43:17.780Z,3.7,2026-09-29T16:43:17.781Z,2.8,-6,10,-999,0,0,0,2026-09-29T16:43:17.775Z,9.1,2026-09-29T16:43:17.777Z,6.4,2026-09-29T16:43:17.773Z,10.9,1790700197678250,1450477,2026-09-29T16:43:17.584Z,200.1,,,,4,,,1,2026-09-29T16:43:17.775Z,8.4,16.443,0.01,99,32.0,0.0,0,1198652463,2026-09-29T16:43:17.776Z,7.9,5.24,0.029,1,2026-09-29T16:43:17.583Z,200.9,,,,,,,,,,,,,,,,,,,217,2165.96,2026-09-29T16:43:17.773Z,10.4,0,0,0,0,2026-09-29T16:43:17.774Z,9.7,1508,1514,1529,1493,255,2026-09-29T16:43:17.777Z,6.9,-0.0,0.0,0.0,0.0,0.0,2026-09-29T16:43:17.776Z,7.5,2026-09-29T16:43:17.583Z,200.5,2026-09-29T16:43:17.682Z,102.2,2026-09-29T16:43:17.681Z,102.7,2026-09-29T16:43:17.681Z,103.2,2026-09-29T16:43:17.584Z,199.6
2026-09-29T16:43:17.827Z,2026-09-29T16:43:17.923Z,2026-09-29T10:43:17.923-06:00,3.1,62,False,POSHOLD,1,0,-1.651264,0.232048,-142.58112,0.000573,-0.011459,-0.029221,39.0187777,-104.8936053,2165.96,-2.352,0.0,0.0,0.0,217.43,0.0,0.0,39.0187777,-104.8936053,2165.89,0.01,25.2,31,6,0.72,1.28,0.006,0.007,-0.003,0,-0.02942,0.098066,-9.826263,0.002,0.001,0.0,20,-297,136,16.443,0.01,7,99,,1000,1000,1000,1000,0.021,0.025,0.021,0,0,0,831,0.0086,0.0024,0.0079,0.0003,784.958,46.12,-180.0,0.0,0.0,2026-09-29T16:43:17.822Z,0.002,6.794,0,995.6,0,0,0,0,2026-09-29T16:43:17.778Z,49.2,2026-09-29T16:43:17.824Z,3.6,2026-09-29T16:43:17.825Z,2.8,-6,10,-999,0,0,0,2026-09-29T16:43:17.775Z,52.7,2026-09-29T16:43:17.777Z,50.0,2026-09-29T16:43:17.773Z,54.6,1790700197678250,1450477,2026-09-29T16:43:17.584Z,243.7,,,,4,,,1,2026-09-29T16:43:17.775Z,52.0,16.443,0.01,99,32.0,0.0,0,1198652463,2026-09-29T16:43:17.776Z,51.6,5.24,0.029,1,2026-09-29T16:43:17.583Z,244.6,,,,,,,,,,,,,,,,,,,217,2165.96,2026-09-29T16:43:17.773Z,54.0,0,0,0,0,2026-09-29T16:43:17.774Z,53.3,1508,1514,1529,1493,255,2026-09-29T16:43:17.777Z,50.6,-0.0,0.0,0.0,0.0,0.0,2026-09-29T16:43:17.776Z,51.1,2026-09-29T16:43:17.583Z,244.1,2026-09-29T16:43:17.682Z,145.9,2026-09-29T16:43:17.681Z,146.3,2026-09-29T16:43:17.681Z,146.8,2026-09-29T16:43:17.584Z,243.3
2026-09-29T16:43:17.882Z,2026-09-29T16:43:17.978Z,2026-09-29T10:43:17.978-06:00,3.15,63,False,POSHOLD,1,0,-1.651837,0.232621,-142.58112,-0.018335,0.03495,0.013178,39.0187777,-104.8936053,2165.96,-2.355,0.0,0.0,0.0,217.42,0.0,0.0,39.0187777,-104.8936053,2165.89,0.01,25.2,31,6,0.72,1.28,0.006,0.007,-0.004,0,-0.039227,0.107873,-9.80665,0.002,0.0,0.0,20,-297,136,16.443,0.01,7,99,,1000,1000,1000,1000,0.021,0.025,0.021,0,0,0,831,0.0086,0.0024,0.0079,0.0003,784.958,46.12,-180.0,0.0,0.0,2026-09-29T16:43:17.872Z,0.002,11.036,0,-9.3,0,0,0,0,2026-09-29T16:43:17.778Z,103.4,2026-09-29T16:43:17.877Z,4.8,2026-09-29T16:43:17.878Z,3.9,-6,10,-999,0,0,0,2026-09-29T16:43:17.875Z,6.9,2026-09-29T16:43:17.777Z,104.3,2026-09-29T16:43:17.873Z,8.8,1790700197678250,1450477,2026-09-29T16:43:17.584Z,297.9,,,,4,,,1,2026-09-29T16:43:17.876Z,6.2,16.443,0.01,99,32.0,0.0,0,1198652463,2026-09-29T16:43:17.776Z,105.8,5.24,0.029,1,2026-09-29T16:43:17.583Z,298.8,,,,,,,,,,,,,,,,,,,217,2165.96,2026-09-29T16:43:17.873Z,8.2,0,0,0,0,2026-09-29T16:43:17.874Z,7.5,1508,1514,1529,1493,255,2026-09-29T16:43:17.777Z,104.8,-0.0,0.0,0.0,0.0,0.0,2026-09-29T16:43:17.776Z,105.3,2026-09-29T16:43:17.583Z,298.4,2026-09-29T16:43:17.682Z,200.1,2026-09-29T16:43:17.681Z,200.5,2026-09-29T16:43:17.681Z,201.0,2026-09-29T16:43:17.584Z,297.5
2026-09-29T16:43:17.927Z,2026-09-29T16:43:18.023Z,2026-09-29T10:43:18.023-06:00,3.2,64,False,POSHOLD,1,0,-1.650691,0.233194,-142.58112,0.022345,0.011459,0.017189,39.0187777,-104.8936053,2165.96,-2.355,0.0,0.0,0.0,217.42,0.0,0.0,39.0187777,-104.8936053,2165.89,0.01,25.2,31,6,0.72,1.28,0.006,0.007,-0.004,0,-0.039227,0.107873,-9.816457,0.002,0.0,0.0,20,-297,136,16.443,0.01,7,99,,1000,1000,1000,1000,0.021,0.025,0.021,0,0,0,831,0.0086,0.0024,0.0079,0.0003,784.958,46.12,-180.0,0.0,0.0,2026-09-29T16:43:17.922Z,0.003,6.839,0,40.7,0,0,0,0,2026-09-29T16:43:17.778Z,149.2,2026-09-29T16:43:17.924Z,3.6,2026-09-29T16:43:17.925Z,2.8,-6,10,-999,0,0,0,2026-09-29T16:43:17.875Z,52.8,2026-09-29T16:43:17.777Z,150.1,2026-09-29T16:43:17.873Z,54.6,1790700197678250,1450477,2026-09-29T16:43:17.584Z,343.8,,,,4,,,1,2026-09-29T16:43:17.876Z,52.0,16.443,0.01,99,32.0,0.0,0,1198652463,2026-09-29T16:43:17.776Z,151.6,5.24,0.029,1,2026-09-29T16:43:17.583Z,344.7,,,,,,,,,,,,,,,,,,,217,2165.96,2026-09-29T16:43:17.873Z,54.1,0,0,0,0,2026-09-29T16:43:17.874Z,53.4,1508,1514,1529,1493,255,2026-09-29T16:43:17.777Z,150.7,-0.0,0.0,0.0,0.0,0.0,2026-09-29T16:43:17.776Z,151.2,2026-09-29T16:43:17.583Z,344.2,2026-09-29T16:43:17.682Z,245.9,2026-09-29T16:43:17.681Z,246.4,2026-09-29T16:43:17.681Z,246.9,2026-09-29T16:43:17.584Z,343.3
2026-09-29T16:43:17.982Z,2026-09-29T16:43:18.078Z,2026-09-29T10:43:18.078-06:00,3.25,65,False,POSHOLD,1,0,-1.649545,0.233194,-142.58112,0.002865,0.004584,0.012605,39.0187777,-104.8936053,2165.96,-2.358,0.0,0.0,0.0,217.42,0.0,0.0,39.0187777,-104.8936053,2165.88,0.01,303.69,31,6,0.72,1.28,0.005,0.007,-0.004,0,-0.039227,0.098066,-9.816457,0.001,0.0,0.0,20,-297,136,16.44,0.01,7,99,,1000,1000,1000,1000,0.021,0.025,0.021,0,0,0,831,0.0086,0.0024,0.0079,0.0003,784.958,46.12,-180.0,0.0,0.0,2026-09-29T16:43:17.972Z,0.002,11.795,0,90.7,0,0,0,0,2026-09-29T16:43:17.778Z,204.2,2026-09-29T16:43:17.979Z,3.7,2026-09-29T16:43:17.980Z,2.8,-6,11,-998,0,-1,0,2026-09-29T16:43:17.975Z,7.7,2026-09-29T16:43:17.977Z,5.1,2026-09-29T16:43:17.973Z,9.6,1790700197678250,1450477,2026-09-29T16:43:17.584Z,398.7,,,,4,,,1,2026-09-29T16:43:17.975Z,7.0,16.44,0.01,99,31.7,0.0,0,1198652463,2026-09-29T16:43:17.976Z,6.6,5.24,0.029,1,2026-09-29T16:43:17.583Z,399.6,,,,,,,,,,,,,,,,,,,217,2165.96,2026-09-29T16:43:17.973Z,9.0,0,0,0,0,2026-09-29T16:43:17.974Z,8.3,1508,1514,1529,1493,255,2026-09-29T16:43:17.977Z,5.6,-0.0,0.0,0.0,0.0,0.0,2026-09-29T16:43:17.976Z,6.1,2026-09-29T16:43:17.583Z,399.1,2026-09-29T16:43:17.682Z,300.9,2026-09-29T16:43:17.681Z,301.3,2026-09-29T16:43:17.681Z,301.8,2026-09-29T16:43:17.584Z,398.3
2026-09-29T16:43:18.027Z,2026-09-29T16:43:18.123Z,2026-09-29T10:43:18.123-06:00,3.3,66,False,POSHOLD,1,0,-1.649545,0.233194,-142.581693,-0.012605,0.002292,-0.037242,39.0187777,-104.8936053,2165.96,-2.358,0.0,0.0,0.0,217.42,0.0,0.0,39.0187777,-104.8936053,2165.88,0.01,303.69,31,6,0.72,1.28,0.005,0.007,-0.004,0,-0.02942,0.08826,-9.816457,0.001,0.0,0.0,20,-297,136,16.44,0.01,7,99,,1000,1000,1000,1000,0.021,0.025,0.021,0,0,0,831,0.0086,0.0024,0.0079,0.0003,784.958,46.12,-180.0,0.0,0.0,2026-09-29T16:43:18.022Z,0.002,6.786,0,140.7,0,0,0,0,2026-09-29T16:43:17.778Z,249.1,2026-09-29T16:43:18.024Z,3.6,2026-09-29T16:43:18.025Z,2.8,-6,11,-998,0,-1,0,2026-09-29T16:43:17.975Z,52.7,2026-09-29T16:43:17.977Z,50.0,2026-09-29T16:43:17.973Z,54.6,1790700197678250,1450477,2026-09-29T16:43:17.584Z,443.7,,,,4,,,1,2026-09-29T16:43:17.975Z,52.0,16.44,0.01,99,31.7,0.0,0,1198652463,2026-09-29T16:43:17.976Z,51.6,5.24,0.029,1,2026-09-29T16:43:17.583Z,444.6,,,,,,,,,,,,,,,,,,,217,2165.96,2026-09-29T16:43:17.973Z,54.0,0,0,0,0,2026-09-29T16:43:17.974Z,53.3,1508,1514,1529,1493,255,2026-09-29T16:43:17.977Z,50.6,-0.0,0.0,0.0,0.0,0.0,2026-09-29T16:43:17.976Z,51.1,2026-09-29T16:43:17.583Z,444.1,2026-09-29T16:43:17.682Z,345.8,2026-09-29T16:43:17.681Z,346.3,2026-09-29T16:43:17.681Z,346.8,2026-09-29T16:43:17.584Z,443.3
2026-09-29T16:43:18.080Z,2026-09-29T16:43:18.176Z,2026-09-29T10:43:18.176-06:00,3.35,67,False,POSHOLD,1,0,-1.650691,0.233194,-142.581693,-0.051566,0.000573,-0.012605,39.0187777,-104.8936053,2165.95,-2.36,0.0,0.0,0.0,217.42,0.0,0.0,39.0187777,-104.8936053,2165.88,0.01,303.69,31,6,0.72,1.28,0.005,0.007,-0.005,0,-0.02942,0.107873,-9.816457,0.002,0.0,0.0,20,-297,136,16.44,0.01,7,99,,1000,1000,1000,1000,0.021,0.025,0.021,0,0,0,831,0.0086,0.0024,0.0079,0.0003,784.958,46.12,-180.0,0.0,0.0,2026-09-29T16:43:18.072Z,0.002,9.815,0,190.7,0,0,0,0,2026-09-29T16:43:17.778Z,302.1,2026-09-29T16:43:18.077Z,3.7,2026-09-29T16:43:18.078Z,2.7,-7,10,-999,0,-1,0,2026-09-29T16:43:18.075Z,5.7,2026-09-29T16:43:17.977Z,103.0,2026-09-29T16:43:18.073Z,7.5,1790700197678250,1450477,2026-09-29T16:43:17.584Z,496.7,,,,4,,,1,2026-09-29T16:43:18.075Z,5.0,16.44,0.01,99,31.7,0.0,0,1198652463,2026-09-29T16:43:17.976Z,104.5,5.24,0.029,1,2026-09-29T16:43:17.583Z,497.5,,,,,,,,,,,,,,,,,,,217,2165.95,2026-09-29T16:43:18.073Z,7.0,0,0,0,0,2026-09-29T16:43:18.074Z,6.3,1508,1514,1529,1493,255,2026-09-29T16:43:17.977Z,103.6,-0.0,0.0,0.0,0.0,0.0,2026-09-29T16:43:17.976Z,104.1,2026-09-29T16:43:17.583Z,497.1,2026-09-29T16:43:17.682Z,398.8,2026-09-29T16:43:17.681Z,399.3,2026-09-29T16:43:17.681Z,399.8,2026-09-29T16:43:17.584Z,496.2
2026-09-29T16:43:18.127Z,2026-09-29T16:43:18.223Z,2026-09-29T10:43:18.223-06:00,3.4,68,False,POSHOLD,1,0,-1.650118,0.232621,-142.58112,-0.013751,-0.002865,0.027502,39.0187777,-104.8936053,2165.95,-2.36,0.0,0.0,0.0,217.42,0.0,0.0,39.0187777,-104.8936053,2165.88,0.01,303.69,31,6,0.72,1.28,0.005,0.007,-0.005,0,-0.02942,0.098066,-9.816457,0.002,0.0,0.0,20,-297,136,16.44,0.01,7,99,,1000,1000,1000,1000,0.021,0.025,0.021,0,0,0,831,0.0086,0.0024,0.0079,0.0003,784.958,46.12,-180.0,0.0,0.0,2026-09-29T16:43:18.122Z,0.003,6.795,0,240.7,0,0,0,0,2026-09-29T16:43:17.778Z,349.1,2026-09-29T16:43:18.124Z,3.6,2026-09-29T16:43:18.125Z,2.7,-7,10,-999,0,-1,0,2026-09-29T16:43:18.075Z,52.7,2026-09-29T16:43:17.977Z,150.1,2026-09-29T16:43:18.073Z,54.6,1790700197678250,1450477,2026-09-29T16:43:17.584Z,543.7,,,,4,,,1,2026-09-29T16:43:18.075Z,52.1,16.44,0.01,99,31.7,0.0,0,1198652463,2026-09-29T16:43:17.976Z,151.6,5.24,0.029,1,2026-09-29T16:43:17.583Z,544.6,,,,,,,,,,,,,,,,,,,217,2165.95,2026-09-29T16:43:18.073Z,54.0,0,0,0,0,2026-09-29T16:43:18.074Z,53.3,1508,1514,1529,1493,255,2026-09-29T16:43:17.977Z,150.6,-0.0,0.0,0.0,0.0,0.0,2026-09-29T16:43:17.976Z,151.1,2026-09-29T16:43:17.583Z,544.1,2026-09-29T16:43:17.682Z,445.9,2026-09-29T16:43:17.681Z,446.3,2026-09-29T16:43:17.681Z,446.8,2026-09-29T16:43:17.584Z,543.3
2026-09-29T16:43:18.184Z,2026-09-29T16:43:18.280Z,2026-09-29T10:43:18.280-06:00,3.45,69,False,POSHOLD,1,0,-1.650691,0.232621,-142.582266,-0.008021,0.006303,-0.024637,39.0187777,-104.8936053,2165.95,-2.363,0.0,0.0,0.0,217.42,0.0,0.0,39.0187777,-104.8936053,2165.89,0.0,104.03,31,6,0.72,1.28,0.005,0.007,-0.005,0,-0.039227,0.098066,-9.80665,0.002,0.001,0.0,20,-296,136,16.444,0.01,7,99,,1000,1000,1000,1000,0.021,0.023,0.023,0,0,0,831,0.0017,0.0015,0.014,0.0041,784.951,46.12,-180.0,0.0,0.0,2026-09-29T16:43:18.172Z,0.002,13.378,0,290.7,0,0,0,0,2026-09-29T16:43:17.778Z,405.7,2026-09-29T16:43:18.179Z,5.1,2026-09-29T16:43:18.180Z,4.2,-7,10,-1000,0,-1,0,2026-09-29T16:43:18.175Z,9.1,2026-09-29T16:43:18.178Z,6.4,2026-09-29T16:43:18.173Z,11.0,1790700197678250,1450477,2026-09-29T16:43:17.584Z,600.2,,,,4,,,1,2026-09-29T16:43:18.176Z,8.4,16.444,0.01,99,31.8,0.0,0,1198652463,2026-09-29T16:43:18.176Z,8.0,5.24,0.029,1,2026-09-29T16:43:17.583Z,601.1,,,,,,,,,,,,,,,,,,,217,2165.95,2026-09-29T16:43:18.174Z,10.4,0,0,0,0,2026-09-29T16:43:18.174Z,9.7,1508,1514,1529,1493,255,2026-09-29T16:43:18.177Z,7.0,-0.0,0.0,0.0,0.0,0.0,2026-09-29T16:43:18.177Z,7.5,2026-09-29T16:43:17.583Z,600.7,2026-09-29T16:43:18.184Z,0.3,2026-09-29T16:43:18.183Z,0.8,2026-09-29T16:43:18.183Z,1.2,2026-09-29T16:43:17.584Z,599.8
2026-09-29T16:43:18.227Z,2026-09-29T16:43:18.323Z,2026-09-29T10:43:18.323-06:00,3.5,70,False,POSHOLD,1,0,-1.649545,0.233194,-142.581693,-0.008594,-0.00573,0.021199,39.0187777,-104.8936053,2165.95,-2.363,0.0,0.0,0.0,217.42,0.0,0.0,39.0187777,-104.8936053,2165.89,0.0,104.03,31,6,0.72,1.28,0.005,0.007,-0.005,0,-0.039227,0.098066,-9.816457,0.002,0.0,0.0,20,-296,136,16.444,0.01,7,99,,1000,1000,1000,1000,0.021,0.023,0.023,0,0,0,831,0.0017,0.0015,0.014,0.0041,784.951,46.12,-180.0,0.0,0.0,2026-09-29T16:43:18.222Z,0.003,6.828,0,340.7,0,0,0,0,2026-09-29T16:43:17.778Z,449.2,2026-09-29T16:43:18.224Z,3.7,2026-09-29T16:43:18.225Z,2.8,-7,10,-1000,0,-1,0,2026-09-29T16:43:18.175Z,52.6,2026-09-29T16:43:18.178Z,50.0,2026-09-29T16:43:18.173Z,54.5,1790700197678250,1450477,2026-09-29T16:43:17.584Z,643.7,,,,4,,,1,2026-09-29T16:43:18.176Z,52.0,16.444,0.01,99,31.8,0.0,0,1198652463,2026-09-29T16:43:18.176Z,51.5,5.24,0.029,1,2026-09-29T16:43:17.583Z,644.6,,,,,,,,,,,,,,,,,,,217,2165.95,2026-09-29T16:43:18.174Z,54.0,0,0,0,0,2026-09-29T16:43:18.174Z,53.3,1508,1514,1529,1493,255,2026-09-29T16:43:18.177Z,50.5,-0.0,0.0,0.0,0.0,0.0,2026-09-29T16:43:18.177Z,51.0,2026-09-29T16:43:17.583Z,644.2,2026-09-29T16:43:18.184Z,43.9,2026-09-29T16:43:18.183Z,44.3,2026-09-29T16:43:18.183Z,44.8,2026-09-29T16:43:17.584Z,643.3
2026-09-29T16:43:18.281Z,2026-09-29T16:43:18.377Z,2026-09-29T10:43:18.377-06:00,3.55,71,False,POSHOLD,1,0,-1.648973,0.232048,-142.581693,0.012032,-0.018335,0.007448,39.0187777,-104.8936053,2165.95,-2.366,0.0,0.0,0.0,217.42,0.0,0.0,39.0187777,-104.8936053,2165.89,0.0,104.03,31,6,0.72,1.28,0.005,0.007,-0.005,0,-0.039227,0.098066,-9.816457,0.002,0.0,0.0,19,-297,136,16.434,0.01,7,99,,1000,1000,1000,1000,0.021,0.023,0.023,0,0,0,831,0.0017,0.0015,0.014,0.0041,784.951,46.12,-180.0,0.0,0.0,2026-09-29T16:43:18.272Z,0.002,10.472,0,390.7,0,0,0,0,2026-09-29T16:43:17.778Z,502.8,2026-09-29T16:43:18.277Z,3.7,2026-09-29T16:43:18.278Z,2.8,-7,11,-999,0,-1,0,2026-09-29T16:43:18.275Z,6.3,2026-09-29T16:43:18.178Z,103.6,2026-09-29T16:43:18.273Z,8.2,1790700197678250,1450477,2026-09-29T16:43:17.584Z,697.4,,,,4,,,1,2026-09-29T16:43:18.276Z,5.6,16.444,0.01,99,31.8,0.0,0,1198652463,2026-09-29T16:43:18.176Z,105.1,5.24,0.029,1,2026-09-29T16:43:17.583Z,698.3,,,,,,,,,,,,,,,,,,,217,2165.95,2026-09-29T16:43:18.274Z,7.6,0,0,0,0,2026-09-29T16:43:18.274Z,6.9,1508,1514,1529,1493,255,2026-09-29T16:43:18.177Z,104.2,-0.0,0.0,0.0,0.0,0.0,2026-09-29T16:43:18.177Z,104.7,2026-09-29T16:43:17.583Z,697.8,2026-09-29T16:43:18.184Z,97.5,2026-09-29T16:43:18.183Z,98.0,2026-09-29T16:43:18.183Z,98.4,2026-09-29T16:43:17.584Z,696.9
2026-09-29T16:43:18.327Z,2026-09-29T16:43:18.423Z,2026-09-29T10:43:18.423-06:00,3.6,72,False,POSHOLD,1,0,-1.649545,0.232048,-142.582839,-0.010313,0.028075,-0.037242,39.0187777,-104.8936053,2165.95,-2.366,0.0,0.0,0.0,217.42,0.0,0.0,39.0187777,-104.8936053,2165.89,0.0,104.03,31,6,0.72,1.28,0.005,0.007,-0.005,0,-0.02942,0.098066,-9.816457,0.002,0.0,0.0,19,-297,136,16.434,0.01,7,99,,1000,1000,1000,1000,0.021,0.023,0.023,0,0,0,831,0.0017,0.0015,0.014,0.0041,784.951,46.12,-180.0,0.0,0.0,2026-09-29T16:43:18.322Z,0.003,6.77,0,440.7,0,0,0,0,2026-09-29T16:43:17.778Z,549.1,2026-09-29T16:43:18.324Z,3.6,2026-09-29T16:43:18.325Z,2.7,-7,11,-999,0,-1,0,2026-09-29T16:43:18.275Z,52.6,2026-09-29T16:43:18.178Z,149.9,2026-09-29T16:43:18.273Z,54.5,1790700197678250,1450477,2026-09-29T16:43:17.584Z,743.7,,,,4,,,1,2026-09-29T16:43:18.276Z,52.0,16.444,0.01,99,31.8,0.0,0,1198652463,2026-09-29T16:43:18.176Z,151.4,5.24,0.029,1,2026-09-29T16:43:17.583Z,744.6,,,,,,,,,,,,,,,,,,,217,2165.95,2026-09-29T16:43:18.274Z,53.9,0,0,0,0,2026-09-29T16:43:18.274Z,53.2,1508,1514,1529,1493,255,2026-09-29T16:43:18.177Z,150.5,-0.0,0.0,0.0,0.0,0.0,2026-09-29T16:43:18.177Z,151.0,2026-09-29T16:43:17.583Z,744.1,2026-09-29T16:43:18.184Z,143.8,2026-09-29T16:43:18.183Z,144.3,2026-09-29T16:43:18.183Z,144.7,2026-09-29T16:43:17.584Z,743.2
2026-09-29T16:43:18.383Z,2026-09-29T16:43:18.479Z,2026-09-29T10:43:18.479-06:00,3.65,73,False,POSHOLD,1,0,-1.648973,0.232621,-142.582266,-0.008594,0.029221,0.017189,39.0187777,-104.8936053,2165.95,-2.369,0.0,0.0,0.0,217.42,0.0,0.0,39.0187777,-104.8936053,2165.88,0.01,120.96,31,6,0.72,1.28,0.005,0.008,-0.006,0,-0.039227,0.098066,-9.816457,0.002,0.0,0.0,20,-297,136,16.44,0.01,7,99,,1000,1000,1000,1000,0.021,0.023,0.023,0,0,0,831,0.0017,0.0015,0.014,0.0041,784.951,46.12,-180.0,0.0,0.0,2026-09-29T16:43:18.372Z,0.003,12.551,0,490.7,0,0,0,0,2026-09-29T16:43:17.778Z,604.9,2026-09-29T16:43:18.379Z,4.2,2026-09-29T16:43:18.380Z,3.3,-5,10,-1000,0,0,0,2026-09-29T16:43:18.375Z,8.5,2026-09-29T16:43:18.377Z,5.7,2026-09-29T16:43:18.373Z,10.3,1790700197678250,1450477,2026-09-29T16:43:17.584Z,799.4,,,,4,,,1,2026-09-29T16:43:18.375Z,7.8,16.44,0.01,99,31.6,0.0,0,1198652463,2026-09-29T16:43:18.376Z,7.3,5.24,0.029,1,2026-09-29T16:43:17.583Z,800.3,,,,,,,,,,,,,,,,,,,217,2165.95,2026-09-29T16:43:18.373Z,9.8,0,0,0,0,2026-09-29T16:43:18.374Z,9.1,1508,1514,1529,1493,255,2026-09-29T16:43:18.377Z,6.4,-0.0,0.0,0.0,0.0,0.0,2026-09-29T16:43:18.376Z,6.9,2026-09-29T16:43:17.583Z,799.9,2026-09-29T16:43:18.184Z,199.6,2026-09-29T16:43:18.183Z,200.0,2026-09-29T16:43:18.183Z,200.5,2026-09-29T16:43:17.584Z,799.0
2026-09-29T16:43:18.427Z,2026-09-29T16:43:18.523Z,2026-09-29T10:43:18.523-06:00,3.7,74,False,POSHOLD,1,0,-1.6484,0.233194,-142.582839,0.01547,0.017189,-0.033805,39.0187777,-104.8936053,2165.95,-2.369,0.0,0.0,0.0,217.42,0.0,0.0,39.0187777,-104.8936053,2165.88,0.01,120.96,31,6,0.72,1.28,0.005,0.008,-0.006,0,-0.039227,0.08826,-9.816457,0.002,0.0,0.0,20,-297,136,16.44,0.01,7,99,,1000,1000,1000,1000,0.021,0.023,0.023,0,0,0,831,0.0017,0.0015,0.014,0.0041,784.951,46.12,-180.0,0.0,0.0,2026-09-29T16:43:18.422Z,0.003,6.974,0,540.7,0,0,0,0,2026-09-29T16:43:17.778Z,649.3,2026-09-29T16:43:18.424Z,3.7,2026-09-29T16:43:18.425Z,2.8,-5,10,-1000,0,0,0,2026-09-29T16:43:18.375Z,52.8,2026-09-29T16:43:18.377Z,50.1,2026-09-29T16:43:18.373Z,54.7,1790700197678250,1450477,2026-09-29T16:43:17.584Z,843.8,,,,4,,,1,2026-09-29T16:43:18.375Z,52.2,16.44,0.01,99,31.6,0.0,0,1198652463,2026-09-29T16:43:18.376Z,51.7,5.24,0.029,1,2026-09-29T16:43:17.583Z,844.7,,,,,,,,,,,,,,,,,,,217,2165.95,2026-09-29T16:43:18.373Z,54.1,0,0,0,0,2026-09-29T16:43:18.374Z,53.4,1508,1514,1529,1493,255,2026-09-29T16:43:18.377Z,50.7,-0.0,0.0,0.0,0.0,0.0,2026-09-29T16:43:18.376Z,51.2,2026-09-29T16:43:17.583Z,844.3,2026-09-29T16:43:18.184Z,243.9,2026-09-29T16:43:18.183Z,244.4,2026-09-29T16:43:18.183Z,244.9,2026-09-29T16:43:17.584Z,843.4
2026-09-29T16:43:18.480Z,2026-09-29T16:43:18.576Z,2026-09-29T10:43:18.576-06:00,3.75,75,False,POSHOLD,1,0,-1.647827,0.232621,-142.582839,0.016616,-0.040107,0.002865,39.0187777,-104.8936053,2165.94,-2.371,0.0,0.0,0.0,217.42,0.0,0.0,39.0187777,-104.8936053,2165.88,0.01,120.96,31,6,0.72,1.28,0.005,0.008,-0.006,0,-0.039227,0.098066,-9.80665,0.002,0.0,0.0,20,-296,136,16.441,0.01,7,99,,1000,1000,1000,1000,0.021,0.023,0.023,0,0,0,831,0.0017,0.0015,0.014,0.0041,784.951,46.12,-180.0,0.0,0.0,2026-09-29T16:43:18.472Z,0.003,9.879,0,590.7,0,0,0,0,2026-09-29T16:43:17.778Z,702.2,2026-09-29T16:43:18.477Z,3.7,2026-09-29T16:43:18.478Z,2.7,-7,10,-999,0,0,0,2026-09-29T16:43:18.475Z,5.7,2026-09-29T16:43:18.377Z,103.0,2026-09-29T16:43:18.473Z,7.6,1790700197678250,1450477,2026-09-29T16:43:17.584Z,896.7,,,,4,,,1,2026-09-29T16:43:18.475Z,5.1,16.44,0.01,99,31.6,0.0,0,1198652463,2026-09-29T16:43:18.376Z,104.6,5.24,0.029,1,2026-09-29T16:43:17.583Z,897.6,,,,,,,,,,,,,,,,,,,217,2165.94,2026-09-29T16:43:18.473Z,7.0,0,0,0,0,2026-09-29T16:43:18.474Z,6.3,1508,1514,1529,1493,255,2026-09-29T16:43:18.377Z,103.6,-0.0,0.0,0.0,0.0,0.0,2026-09-29T16:43:18.376Z,104.1,2026-09-29T16:43:17.583Z,897.2,2026-09-29T16:43:18.184Z,296.8,2026-09-29T16:43:18.183Z,297.3,2026-09-29T16:43:18.183Z,297.7,2026-09-29T16:43:17.584Z,896.3
2026-09-29T16:43:18.529Z,2026-09-29T16:43:18.625Z,2026-09-29T10:43:18.625-06:00,3.8,76,False,POSHOLD,1,0,-1.647827,0.23434,-142.583412,-0.014324,0.053285,-0.012605,39.0187777,-104.8936053,2165.94,-2.371,0.0,0.0,0.0,217.42,0.0,0.0,39.0187777,-104.8936053,2165.88,0.01,120.96,31,6,0.72,1.28,0.005,0.008,-0.006,0,-0.02942,0.098066,-9.80665,0.001,0.001,0.0,20,-296,136,16.441,0.01,7,99,,1000,1000,1000,1000,0.021,0.023,0.023,0,0,0,831,0.0017,0.0015,0.014,0.0041,784.951,46.12,-180.0,0.0,0.0,2026-09-29T16:43:18.522Z,0.002,8.371,0,640.7,0,16,89,3,2026-09-29T16:43:18.528Z,0.9,2026-09-29T16:43:18.525Z,4.1,2026-09-29T16:43:18.526Z,3.2,-7,10,-999,0,0,0,2026-09-29T16:43:18.475Z,54.2,2026-09-29T16:43:18.377Z,151.5,2026-09-29T16:43:18.473Z,56.1,1790700197678250,1450477,2026-09-29T16:43:17.584Z,945.2,,,,4,,,1,2026-09-29T16:43:18.475Z,53.6,16.44,0.01,99,31.6,0.0,0,1198652463,2026-09-29T16:43:18.376Z,153.1,5.24,0.029,1,2026-09-29T16:43:17.583Z,946.1,,,,,,,,,,,,,,,,,,,217,2165.94,2026-09-29T16:43:18.473Z,55.5,0,0,0,0,2026-09-29T16:43:18.474Z,54.8,1508,1514,1529,1493,255,2026-09-29T16:43:18.377Z,152.1,-0.0,0.0,0.0,0.0,0.0,2026-09-29T16:43:18.376Z,152.6,2026-09-29T16:43:17.583Z,945.7,2026-09-29T16:43:18.184Z,345.3,2026-09-29T16:43:18.183Z,345.8,2026-09-29T16:43:18.183Z,346.3,2026-09-29T16:43:17.584Z,944.8
2026-09-29T16:43:18.584Z,2026-09-29T16:43:18.680Z,2026-09-29T10:43:18.680-06:00,3.85,77,False,POSHOLD,1,0,-1.648973,0.234913,-142.582839,-0.024637,-0.010886,0.021772,39.0187777,-104.8936053,2165.94,-2.373,0.0,0.0,0.0,217.42,0.0,0.0,39.0187777,-104.8936053,2165.89,0.02,39.8,31,6,0.72,1.28,0.005,0.008,-0.006,0,-0.02942,0.098066,-9.816457,0.002,0.0,0.0,20,-297,136,16.445,0.01,7,99,,1000,1000,1000,1000,0.021,0.023,0.023,0,0,0,831,0.0017,0.0015,0.014,0.0041,784.951,46.12,-180.0,0.0,0.0,2026-09-29T16:43:18.572Z,0.002,13.628,0,690.7,0,16,89,3,2026-09-29T16:43:18.528Z,56.2,2026-09-29T16:43:18.579Z,5.4,2026-09-29T16:43:18.580Z,4.5,-6,9,-999,0,0,0,2026-09-29T16:43:18.575Z,9.5,2026-09-29T16:43:18.577Z,6.8,2026-09-29T16:43:18.573Z,11.3,1790700198678327,1451477,2026-09-29T16:43:18.583Z,0.8,,,,4,,,1,2026-09-29T16:43:18.575Z,8.8,16.445,0.01,99,32.5,0.0,0,1198652463,2026-09-29T16:43:18.576Z,8.3,5.244,0.016,1,2026-09-29T16:43:18.583Z,1.7,,,,,,,,,,,,,,,,,,,217,2165.94,2026-09-29T16:43:18.573Z,10.8,0,0,0,0,2026-09-29T16:43:18.574Z,10.1,1508,1514,1529,1493,255,2026-09-29T16:43:18.577Z,7.3,-0.0,0.0,0.0,0.0,0.0,2026-09-29T16:43:18.576Z,7.9,2026-09-29T16:43:18.583Z,1.2,2026-09-29T16:43:18.184Z,400.6,2026-09-29T16:43:18.183Z,401.0,2026-09-29T16:43:18.183Z,401.5,2026-09-29T16:43:18.584Z,0.3
2026-09-29T16:43:18.627Z,2026-09-29T16:43:18.723Z,2026-09-29T10:43:18.723-06:00,3.9,78,False,POSHOLD,1,0,-1.648973,0.236059,-142.583985,-0.026356,0.02521,-0.03094,39.0187777,-104.8936053,2165.94,-2.373,0.0,0.0,0.0,217.42,0.0,0.0,39.0187777,-104.8936053,2165.89,0.02,39.8,31,6,0.72,1.28,0.005,0.008,-0.006,0,-0.039227,0.107873,-9.80665,0.001,0.0,0.0,20,-297,136,16.445,0.01,7,99,,1000,1000,1000,1000,0.021,0.023,0.023,0,0,0,831,0.0017,0.0015,0.014,0.0041,784.951,46.12,-180.0,0.0,0.0,2026-09-29T16:43:18.622Z,0.002,6.849,0,740.7,0,16,89,3,2026-09-29T16:43:18.528Z,99.5,2026-09-29T16:43:18.624Z,3.6,2026-09-29T16:43:18.625Z,2.8,-6,9,-999,0,0,0,2026-09-29T16:43:18.575Z,52.8,2026-09-29T16:43:18.577Z,50.1,2026-09-29T16:43:18.573Z,54.6,1790700198678327,1451477,2026-09-29T16:43:18.583Z,44.1,,,,4,,,1,2026-09-29T16:43:18.575Z,52.1,16.445,0.01,99,32.5,0.0,0,1198652463,2026-09-29T16:43:18.576Z,51.6,5.244,0.016,1,2026-09-29T16:43:18.583Z,45.0,,,,,,,,,,,,,,,,,,,217,2165.94,2026-09-29T16:43:18.573Z,54.1,0,0,0,0,2026-09-29T16:43:18.574Z,53.4,1508,1514,1529,1493,255,2026-09-29T16:43:18.577Z,50.7,-0.0,0.0,0.0,0.0,0.0,2026-09-29T16:43:18.576Z,51.2,2026-09-29T16:43:18.583Z,44.5,2026-09-29T16:43:18.184Z,443.9,2026-09-29T16:43:18.183Z,444.3,2026-09-29T16:43:18.183Z,444.8,2026-09-29T16:43:18.584Z,43.6
2026-09-29T16:43:18.682Z,2026-09-29T16:43:18.778Z,2026-09-29T10:43:18.778-06:00,3.95,79,False,POSHOLD,1,0,-1.648973,0.235486,-142.582839,-0.010313,-0.01547,0.021199,39.0187777,-104.8936053,2165.94,-2.375,0.0,0.0,0.0,217.42,0.0,0.0,39.0187777,-104.8936053,2165.89,0.02,39.8,31,6,0.72,1.28,0.005,0.008,-0.006,0,-0.02942,0.098066,-9.816457,0.002,0.0,0.0,20,-297,136,16.438,0.01,7,99,,1000,1000,1000,1000,0.022,0.024,0.024,0,0,0,831,0.0226,0.0017,0.0179,0.0048,784.973,46.13,-180.0,0.0,0.0,2026-09-29T16:43:18.672Z,0.002,11.38,0,790.7,0,16,89,3,2026-09-29T16:43:18.528Z,154.0,2026-09-29T16:43:18.677Z,5.1,2026-09-29T16:43:18.678Z,4.2,-7,9,-999,0,-1,0,2026-09-29T16:43:18.675Z,7.2,2026-09-29T16:43:18.577Z,104.6,2026-09-29T16:43:18.673Z,9.1,1790700198678327,1451477,2026-09-29T16:43:18.583Z,98.6,,,,4,,,1,2026-09-29T16:43:18.676Z,6.5,16.445,0.01,99,32.5,0.0,0,1198652463,2026-09-29T16:43:18.576Z,106.1,5.244,0.016,1,2026-09-29T16:43:18.583Z,99.5,,,,,,,,,,,,,,,,,,,217,2165.94,2026-09-29T16:43:18.674Z,8.5,0,0,0,0,2026-09-29T16:43:18.674Z,7.8,1508,1514,1529,1493,255,2026-09-29T16:43:18.577Z,105.2,-0.0,0.0,0.0,0.0,0.0,2026-09-29T16:43:18.576Z,105.7,2026-09-29T16:43:18.583Z,99.0,2026-09-29T16:43:18.682Z,0.3,2026-09-29T16:43:18.681Z,0.8,2026-09-29T16:43:18.681Z,1.3,2026-09-29T16:43:18.584Z,98.2
2026-09-29T16:43:18.730Z,2026-09-29T16:43:18.826Z,2026-09-29T10:43:18.826-06:00,4.0,80,False,POSHOLD,1,0,-1.650118,0.234913,-142.583985,-0.033805,-0.020054,-0.001719,39.0187777,-104.8936053,2165.94,-2.375,0.0,0.0,0.0,217.42,0.0,0.0,39.0187777,-104.8936053,2165.89,0.02,39.8,31,6,0.72,1.28,0.005,0.008,-0.006,0,-0.039227,0.098066,-9.80665,0.001,0.0,0.0,20,-297,136,16.438,0.01,7,99,,1000,1000,1000,1000,0.022,0.024,0.024,0,0,0,831,0.0226,0.0017,0.0179,0.0048,784.973,46.13,-180.0,0.0,0.0,2026-09-29T16:43:18.722Z,0.003,9.168,0,840.7,0,16,89,3,2026-09-29T16:43:18.528Z,201.8,2026-09-29T16:43:18.724Z,6.0,2026-09-29T16:43:18.725Z,5.1,-7,9,-999,0,-1,0,2026-09-29T16:43:18.675Z,55.0,2026-09-29T16:43:18.577Z,152.4,2026-09-29T16:43:18.673Z,56.9,1790700198678327,1451477,2026-09-29T16:43:18.583Z,146.4,,,,4,,,1,2026-09-29T16:43:18.676Z,54.3,16.445,0.01,99,32.5,0.0,0,1198652463,2026-09-29T16:43:18.576Z,153.9,5.244,0.016,1,2026-09-29T16:43:18.583Z,147.3,,,,,,,,,,,,,,,,,,,217,2165.94,2026-09-29T16:43:18.674Z,56.3,0,0,0,0,2026-09-29T16:43:18.674Z,55.6,1508,1514,1529,1493,255,2026-09-29T16:43:18.577Z,153.0,-0.0,0.0,0.0,0.0,0.0,2026-09-29T16:43:18.576Z,153.5,2026-09-29T16:43:18.583Z,146.8,2026-09-29T16:43:18.682Z,48.1,2026-09-29T16:43:18.681Z,48.6,2026-09-29T16:43:18.681Z,49.1,2026-09-29T16:43:18.584Z,146.0
2026-09-29T16:43:18.783Z,2026-09-29T16:43:18.879Z,2026-09-29T10:43:18.879-06:00,4.05,81,False,POSHOLD,1,0,-1.650691,0.235486,-142.582839,-0.012605,-0.003438,0.027502,39.0187777,-104.8936053,2165.94,-2.377,0.0,0.0,0.0,217.42,0.0,0.0,39.0187777,-104.8936053,2165.89,0.0,71.56,31,6,0.72,1.28,0.006,0.008,-0.006,0,-0.039227,0.107873,-9.80665,0.002,0.0,0.0,20,-297,136,16.447,0.01,7,99,,1000,1000,1000,1000,0.022,0.024,0.024,0,0,0,831,0.0226,0.0017,0.0179,0.0048,784.973,46.13,-180.0,0.0,0.0,2026-09-29T16:43:18.772Z,0.003,12.696,0,890.7,0,0,0,0,2026-09-29T16:43:18.773Z,9.9,2026-09-29T16:43:18.780Z,3.7,2026-09-29T16:43:18.781Z,2.8,-7,9,-999,0,0,0,2026-09-29T16:43:18.776Z,7.7,2026-09-29T16:43:18.778Z,5.0,2026-09-29T16:43:18.774Z,9.5,1790700198678327,1451477,2026-09-29T16:43:18.583Z,199.9,,,,4,,,1,2026-09-29T16:43:18.776Z,7.1,16.447,0.01,99,32.5,0.0,0,1198652463,2026-09-29T16:43:18.777Z,6.6,5.244,0.016,1,2026-09-29T16:43:18.583Z,200.8,,,,,,,,,,,,,,,,,,,217,2165.94,2026-09-29T16:43:18.774Z,9.0,0,0,0,0,2026-09-29T16:43:18.775Z,8.3,1508,1514,1529,1493,255,2026-09-29T16:43:18.778Z,5.5,-0.0,0.0,0.0,0.0,0.0,2026-09-29T16:43:18.777Z,6.0,2026-09-29T16:43:18.583Z,200.4,2026-09-29T16:43:18.682Z,101.6,2026-09-29T16:43:18.681Z,102.1,2026-09-29T16:43:18.681Z,102.6,2026-09-29T16:43:18.584Z,199.5
2026-09-29T16:43:18.827Z,2026-09-29T16:43:18.923Z,2026-09-29T10:43:18.923-06:00,4.1,82,False,POSHOLD,1,0,-1.650691,0.235486,-142.583412,0.004011,0.024637,0.016043,39.0187777,-104.8936053,2165.94,-2.377,0.0,0.0,0.0,217.42,0.0,0.0,39.0187777,-104.8936053,2165.89,0.0,71.56,31,6,0.72,1.28,0.006,0.008,-0.006,0,-0.049033,0.098066,-9.80665,0.002,0.0,0.0,20,-297,136,16.447,0.01,7,99,,1000,1000,1000,1000,0.022,0.024,0.024,0,0,0,831,0.0226,0.0017,0.0179,0.0048,784.973,46.13,-180.0,0.0,0.0,2026-09-29T16:43:18.822Z,0.003,6.938,0,940.7,0,0,0,0,2026-09-29T16:43:18.773Z,54.1,2026-09-29T16:43:18.824Z,3.8,2026-09-29T16:43:18.825Z,2.9,-7,9,-999,0,0,0,2026-09-29T16:43:18.776Z,51.9,2026-09-29T16:43:18.778Z,49.2,2026-09-29T16:43:18.774Z,53.7,1790700198678327,1451477,2026-09-29T16:43:18.583Z,244.1,,,,4,,,1,2026-09-29T16:43:18.776Z,51.3,16.447,0.01,99,32.5,0.0,0,1198652463,2026-09-29T16:43:18.777Z,50.8,5.244,0.016,1,2026-09-29T16:43:18.583Z,245.0,,,,,,,,,,,,,,,,,,,217,2165.94,2026-09-29T16:43:18.774Z,53.2,0,0,0,0,2026-09-29T16:43:18.775Z,52.5,1508,1514,1529,1493,255,2026-09-29T16:43:18.778Z,49.7,-0.0,0.0,0.0,0.0,0.0,2026-09-29T16:43:18.777Z,50.3,2026-09-29T16:43:18.583Z,244.6,2026-09-29T16:43:18.682Z,145.8,2026-09-29T16:43:18.681Z,146.3,2026-09-29T16:43:18.681Z,146.8,2026-09-29T16:43:18.584Z,243.7
2026-09-29T16:43:18.880Z,2026-09-29T16:43:18.976Z,2026-09-29T10:43:18.976-06:00,4.15,83,False,POSHOLD,1,0,-1.650118,0.236632,-142.582839,-0.001146,0.024637,0.005157,39.0187777,-104.8936053,2165.93,-2.38,0.0,0.0,0.0,217.42,0.0,0.0,39.0187777,-104.8936053,2165.89,0.0,71.56,31,6,0.72,1.28,0.006,0.008,-0.006,0,-0.039227,0.107873,-9.826263,0.002,0.0,0.0,20,-297,136,16.438,0.01,7,99,,1000,1000,1000,1000,0.022,0.024,0.024,0,0,0,831,0.0226,0.0017,0.0179,0.0048,784.973,46.13,-180.0,0.0,0.0,2026-09-29T16:43:18.872Z,0.003,9.892,0,990.7,0,0,0,0,2026-09-29T16:43:18.773Z,107.1,2026-09-29T16:43:18.877Z,3.7,2026-09-29T16:43:18.878Z,2.7,-6,9,-999,0,0,0,2026-09-29T16:43:18.875Z,5.7,2026-09-29T16:43:18.778Z,102.2,2026-09-29T16:43:18.873Z,7.6,1790700198678327,1451477,2026-09-29T16:43:18.583Z,297.0,,,,4,,,1,2026-09-29T16:43:18.875Z,5.0,16.447,0.01,99,32.5,0.0,0,1198652463,2026-09-29T16:43:18.777Z,103.7,5.244,0.016,1,2026-09-29T16:43:18.583Z,297.9,,,,,,,,,,,,,,,,,,,217,2165.93,2026-09-29T16:43:18.873Z,7.0,0,0,0,0,2026-09-29T16:43:18.874Z,6.3,1508,1514,1529,1493,255,2026-09-29T16:43:18.778Z,102.7,-0.0,0.0,0.0,0.0,0.0,2026-09-29T16:43:18.777Z,103.2,2026-09-29T16:43:18.583Z,297.5,2026-09-29T16:43:18.682Z,198.8,2026-09-29T16:43:18.681Z,199.2,2026-09-29T16:43:18.681Z,199.8,2026-09-29T16:43:18.584Z,296.6
2026-09-29T16:43:18.928Z,2026-09-29T16:43:19.024Z,2026-09-29T10:43:19.024-06:00,4.2,84,False,POSHOLD,1,0,-1.650118,0.236632,-142.583412,-0.028648,-0.00974,-0.046983,39.0187777,-104.8936053,2165.93,-2.38,0.0,0.0,0.0,217.42,0.0,0.0,39.0187777,-104.8936053,2165.89,0.0,71.56,31,6,0.72,1.28,0.006,0.008,-0.006,0,-0.039227,0.08826,-9.80665,0.002,0.0,0.0,20,-297,136,16.438,0.01,7,99,,1000,1000,1000,1000,0.022,0.024,0.024,0,0,0,831,0.0226,0.0017,0.0179,0.0048,784.973,46.13,-180.0,0.0,0.0,2026-09-29T16:43:18.922Z,0.002,8.005,0,-6.2,0,0,0,0,2026-09-29T16:43:18.773Z,155.2,2026-09-29T16:43:18.924Z,4.8,2026-09-29T16:43:18.925Z,3.9,-6,9,-999,0,0,0,2026-09-29T16:43:18.875Z,53.8,2026-09-29T16:43:18.778Z,150.3,2026-09-29T16:43:18.873Z,55.7,1790700198678327,1451477,2026-09-29T16:43:18.583Z,345.1,,,,4,,,1,2026-09-29T16:43:18.875Z,53.1,16.447,0.01,99,32.5,0.0,0,1198652463,2026-09-29T16:43:18.777Z,151.8,5.244,0.016,1,2026-09-29T16:43:18.583Z,346.0,,,,,,,,,,,,,,,,,,,217,2165.93,2026-09-29T16:43:18.873Z,55.1,0,0,0,0,2026-09-29T16:43:18.874Z,54.4,1508,1514,1529,1493,255,2026-09-29T16:43:18.778Z,150.8,-0.0,0.0,0.0,0.0,0.0,2026-09-29T16:43:18.777Z,151.3,2026-09-29T16:43:18.583Z,345.6,2026-09-29T16:43:18.682Z,246.9,2026-09-29T16:43:18.681Z,247.3,2026-09-29T16:43:18.681Z,247.9,2026-09-29T16:43:18.584Z,344.7
2026-09-29T16:43:18.982Z,2026-09-29T16:43:19.078Z,2026-09-29T10:43:19.078-06:00,4.25,85,False,POSHOLD,1,0,-1.649545,0.236632,-142.583412,-0.020626,-0.006303,-0.013178,39.0187777,-104.8936053,2165.93,-2.384,0.0,0.0,0.0,217.42,0.0,0.0,39.0187777,-104.8936053,2165.89,0.0,14.03,31,6,0.72,1.28,0.006,0.009,-0.006,0,-0.039227,0.107873,-9.816457,0.002,0.0,0.0,20,-297,136,16.45,0.01,7,99,,1000,1000,1000,1000,0.022,0.024,0.024,0,0,0,831,0.0226,0.0017,0.0179,0.0048,784.973,46.13,-180.0,0.0,0.0,2026-09-29T16:43:18.972Z,0.002,11.899,0,43.8,0,0,0,0,2026-09-29T16:43:18.773Z,209.1,2026-09-29T16:43:18.979Z,3.7,2026-09-29T16:43:18.980Z,2.8,-7,10,-1000,0,0,0,2026-09-29T16:43:18.975Z,7.7,2026-09-29T16:43:18.978Z,5.1,2026-09-29T16:43:18.973Z,9.6,1790700198678327,1451477,2026-09-29T16:43:18.583Z,399.1,,,,4,,,1,2026-09-29T16:43:18.976Z,7.1,16.45,0.01,99,31.9,0.0,0,1198652463,2026-09-29T16:43:18.976Z,6.6,5.244,0.016,1,2026-09-29T16:43:18.583Z,400.0,,,,,,,,,,,,,,,,,,,217,2165.93,2026-09-29T16:43:18.974Z,9.0,0,0,0,0,2026-09-29T16:43:18.974Z,8.3,1508,1514,1529,1493,255,2026-09-29T16:43:18.977Z,5.6,-0.0,0.0,0.0,0.0,0.0,2026-09-29T16:43:18.976Z,6.1,2026-09-29T16:43:18.583Z,399.6,2026-09-29T16:43:18.682Z,300.9,2026-09-29T16:43:18.681Z,301.3,2026-09-29T16:43:18.681Z,301.8,2026-09-29T16:43:18.584Z,398.7
2026-09-29T16:43:19.027Z,2026-09-29T16:43:19.123Z,2026-09-29T10:43:19.123-06:00,4.3,86,False,POSHOLD,1,0,-1.649545,0.236632,-142.58112,-0.018335,-0.00573,0.02521,39.0187777,-104.8936053,2165.93,-2.384,0.0,0.0,0.0,217.42,0.0,0.0,39.0187777,-104.8936053,2165.89,0.0,14.03,31,6,0.72,1.28,0.006,0.009,-0.006,0,-0.02942,0.098066,-9.816457,0.002,0.0,0.0,20,-297,136,16.45,0.01,7,99,,1000,1000,1000,1000,0.022,0.024,0.024,0,0,0,831,0.0226,0.0017,0.0179,0.0048,784.973,46.13,-180.0,0.0,0.0,2026-09-29T16:43:19.022Z,0.002,6.804,0,93.8,0,0,0,0,2026-09-29T16:43:18.773Z,254.1,2026-09-29T16:43:19.024Z,3.7,2026-09-29T16:43:19.025Z,2.8,-7,10,-1000,0,0,0,2026-09-29T16:43:18.975Z,52.7,2026-09-29T16:43:18.978Z,50.0,2026-09-29T16:43:18.973Z,54.5,1790700198678327,1451477,2026-09-29T16:43:18.583Z,444.0,,,,4,,,1,2026-09-29T16:43:18.976Z,52.0,16.45,0.01,99,31.9,0.0,0,1198652463,2026-09-29T16:43:18.976Z,51.5,5.244,0.016,1,2026-09-29T16:43:18.583Z,444.9,,,,,,,,,,,,,,,,,,,217,2165.93,2026-09-29T16:43:18.974Z,53.9,0,0,0,0,2026-09-29T16:43:18.974Z,53.2,1508,1514,1529,1493,255,2026-09-29T16:43:18.977Z,50.5,-0.0,0.0,0.0,0.0,0.0,2026-09-29T16:43:18.976Z,51.0,2026-09-29T16:43:18.583Z,444.5,2026-09-29T16:43:18.682Z,345.8,2026-09-29T16:43:18.681Z,346.2,2026-09-29T16:43:18.681Z,346.8,2026-09-29T16:43:18.584Z,443.6
2026-09-29T16:43:19.080Z,2026-09-29T16:43:19.176Z,2026-09-29T10:43:19.176-06:00,4.35,87,False,POSHOLD,1,0,-1.651264,0.236632,-142.579974,-0.03094,0.002865,0.028075,39.0187777,-104.8936053,2165.93,-2.388,0.0,0.0,0.0,217.42,0.0,0.0,39.0187777,-104.8936053,2165.89,0.0,14.03,31,6,0.72,1.28,0.006,0.009,-0.007,0,-0.02942,0.098066,-9.816457,0.002,0.001,0.0,21,-297,135,16.43,0.01,7,99,,1000,1000,1000,1000,0.022,0.024,0.024,0,0,0,831,0.0226,0.0017,0.0179,0.0048,784.973,46.13,-180.0,0.0,0.0,2026-09-29T16:43:19.072Z,0.003,9.841,0,143.8,0,0,0,0,2026-09-29T16:43:18.773Z,307.0,2026-09-29T16:43:19.077Z,3.7,2026-09-29T16:43:19.078Z,2.7,-6,10,-999,0,0,0,2026-09-29T16:43:19.075Z,5.7,2026-09-29T16:43:18.978Z,103.0,2026-09-29T16:43:19.073Z,7.5,1790700198678327,1451477,2026-09-29T16:43:18.583Z,497.0,,,,4,,,1,2026-09-29T16:43:19.075Z,5.0,16.45,0.01,99,31.9,0.0,0,1198652463,2026-09-29T16:43:18.976Z,104.5,5.244,0.016,1,2026-09-29T16:43:18.583Z,497.9,,,,,,,,,,,,,,,,,,,217,2165.93,2026-09-29T16:43:19.073Z,7.0,0,0,0,0,2026-09-29T16:43:19.074Z,6.3,1508,1514,1529,1493,255,2026-09-29T16:43:18.977Z,103.5,-0.0,0.0,0.0,0.0,0.0,2026-09-29T16:43:18.976Z,104.0,2026-09-29T16:43:18.583Z,497.5,2026-09-29T16:43:18.682Z,398.7,2026-09-29T16:43:18.681Z,399.2,2026-09-29T16:43:18.681Z,399.7,2026-09-29T16:43:18.584Z,496.6
2026-09-29T16:43:19.127Z,2026-09-29T16:43:19.223Z,2026-09-29T10:43:19.223-06:00,4.4,88,False,POSHOLD,1,0,-1.651837,0.236059,-142.579974,-0.012032,-0.016043,0.018908,39.0187777,-104.8936053,2165.93,-2.388,0.0,0.0,0.0,217.42,0.0,0.0,39.0187777,-104.8936053,2165.89,0.0,14.03,31,6,0.72,1.28,0.006,0.009,-0.007,0,-0.039227,0.107873,-9.80665,0.001,0.001,0.0,21,-297,135,16.43,0.01,7,99,,1000,1000,1000,1000,0.022,0.024,0.024,0,0,0,831,0.0226,0.0017,0.0179,0.0048,784.973,46.13,-180.0,0.0,0.0,2026-09-29T16:43:19.122Z,0.003,6.819,0,193.8,0,0,0,0,2026-09-29T16:43:18.773Z,354.1,2026-09-29T16:43:19.124Z,3.7,2026-09-29T16:43:19.125Z,2.8,-6,10,-999,0,0,0,2026-09-29T16:43:19.075Z,52.8,2026-09-29T16:43:18.978Z,150.0,2026-09-29T16:43:19.073Z,54.6,1790700198678327,1451477,2026-09-29T16:43:18.583Z,544.1,,,,4,,,1,2026-09-29T16:43:19.075Z,52.1,16.45,0.01,99,31.9,0.0,0,1198652463,2026-09-29T16:43:18.976Z,151.5,5.244,0.016,1,2026-09-29T16:43:18.583Z,545.0,,,,,,,,,,,,,,,,,,,217,2165.93,2026-09-29T16:43:19.073Z,54.0,0,0,0,0,2026-09-29T16:43:19.074Z,53.3,1508,1514,1529,1493,255,2026-09-29T16:43:18.977Z,150.6,-0.0,0.0,0.0,0.0,0.0,2026-09-29T16:43:18.976Z,151.1,2026-09-29T16:43:18.583Z,544.5,2026-09-29T16:43:18.682Z,445.8,2026-09-29T16:43:18.681Z,446.2,2026-09-29T16:43:18.681Z,446.8,2026-09-29T16:43:18.584Z,543.6
2026-09-29T16:43:19.184Z,2026-09-29T16:43:19.280Z,2026-09-29T10:43:19.280-06:00,4.45,89,False,POSHOLD,1,0,-1.651264,0.234913,-142.579401,0.006875,-0.00974,0.027502,39.0187777,-104.8936053,2165.92,-2.391,0.0,0.0,0.0,217.43,0.0,0.0,39.0187777,-104.8936053,2165.89,0.01,235.3,31,6,0.72,1.28,0.005,0.009,-0.007,0,-0.02942,0.08826,-9.816457,0.002,0.0,0.0,20,-297,136,16.439,0.01,7,99,,1000,1000,1000,1000,0.023,0.023,0.022,0,0,0,831,0.0104,0.0018,0.0078,0.0023,784.969,46.13,-180.0,0.0,0.0,2026-09-29T16:43:19.172Z,0.002,13.36,0,243.8,0,0,0,0,2026-09-29T16:43:18.773Z,410.5,2026-09-29T16:43:19.179Z,5.1,2026-09-29T16:43:19.180Z,4.2,-6,9,-1000,0,-1,0,2026-09-29T16:43:19.175Z,9.1,2026-09-29T16:43:19.178Z,6.4,2026-09-29T16:43:19.173Z,11.0,1790700198678327,1451477,2026-09-29T16:43:18.583Z,600.5,,,,4,,,1,2026-09-29T16:43:19.176Z,8.4,16.439,0.01,99,31.6,0.0,0,1198652463,2026-09-29T16:43:19.176Z,8.0,5.244,0.016,1,2026-09-29T16:43:18.583Z,601.4,,,,,,,,,,,,,,,,,,,217,2165.92,2026-09-29T16:43:19.174Z,10.4,0,0,0,0,2026-09-29T16:43:19.174Z,9.7,1508,1514,1529,1493,255,2026-09-29T16:43:19.177Z,7.0,-0.0,0.0,0.0,0.0,0.0,2026-09-29T16:43:19.176Z,7.5,2026-09-29T16:43:18.583Z,600.9,2026-09-29T16:43:19.184Z,0.3,2026-09-29T16:43:19.183Z,0.8,2026-09-29T16:43:19.183Z,1.2,2026-09-29T16:43:18.584Z,600.1
2026-09-29T16:43:19.228Z,2026-09-29T16:43:19.324Z,2026-09-29T10:43:19.324-06:00,4.5,90,False,POSHOLD,1,0,-1.651264,0.23434,-142.578255,-0.013178,-0.021199,0.040107,39.0187777,-104.8936053,2165.92,-2.391,0.0,0.0,0.0,217.43,0.0,0.0,39.0187777,-104.8936053,2165.89,0.01,235.3,31,6,0.72,1.28,0.005,0.009,-0.007,0,-0.039227,0.107873,-9.80665,0.002,0.0,0.0,20,-297,136,16.439,0.01,7,99,,1000,1000,1000,1000,0.023,0.023,0.022,0,0,0,831,0.0104,0.0018,0.0078,0.0023,784.969,46.13,-180.0,0.0,0.0,2026-09-29T16:43:19.222Z,0.003,7.024,0,293.8,0,0,0,0,2026-09-29T16:43:18.773Z,454.2,2026-09-29T16:43:19.224Z,3.7,2026-09-29T16:43:19.225Z,2.8,-6,9,-1000,0,-1,0,2026-09-29T16:43:19.175Z,52.8,2026-09-29T16:43:19.178Z,50.1,2026-09-29T16:43:19.173Z,54.7,1790700198678327,1451477,2026-09-29T16:43:18.583Z,644.2,,,,4,,,1,2026-09-29T16:43:19.176Z,52.1,16.439,0.01,99,31.6,0.0,0,1198652463,2026-09-29T16:43:19.176Z,51.7,5.244,0.016,1,2026-09-29T16:43:18.583Z,645.1,,,,,,,,,,,,,,,,,,,217,2165.92,2026-09-29T16:43:19.174Z,54.1,0,0,0,0,2026-09-29T16:43:19.174Z,53.4,1508,1514,1529,1493,255,2026-09-29T16:43:19.177Z,50.7,-0.0,0.0,0.0,0.0,0.0,2026-09-29T16:43:19.176Z,51.2,2026-09-29T16:43:18.583Z,644.6,2026-09-29T16:43:19.184Z,44.0,2026-09-29T16:43:19.183Z,44.5,2026-09-29T16:43:19.183Z,44.9,2026-09-29T16:43:18.584Z,643.8
