time_utc,time_gps_utc,time_local,elapsed_s,sample_n,armed,flight_mode,mission_seq,wp_dist_m,roll_deg,pitch_deg,yaw_deg,roll_rate_deg_s,pitch_rate_deg_s,yaw_rate_deg_s,lat_deg,lon_deg,alt_msl_m,alt_rel_m,vel_n_m_s,vel_e_m_s,vel_d_m_s,heading_deg,north_m,east_m,gps_lat_deg,gps_lon_deg,gps_alt_m,gps_speed_m_s,gps_course_deg,gps_sats,gps_fix_type,gps_hdop,gps_vdop,groundspeed_m_s,airspeed_m_s,climb_m_s,throttle_pct,acc_x_m_s2,acc_y_m_s2,acc_z_m_s2,gyro_x_rad_s,gyro_y_rad_s,gyro_z_rad_s,mag_x_mgauss,mag_y_mgauss,mag_z_mgauss,batt_voltage_v,batt_current_a,batt_consumed_mah,batt_remaining_pct,batt_temp_c,motor1_us,motor2_us,motor3_us,motor4_us,vib_x_m_s2,vib_y_m_s2,vib_z_m_s2,clip_0,clip_1,clip_2,ekf_flags,ekf_vel_var,ekf_pos_horiz_var,ekf_pos_vert_var,ekf_compass_var,baro_press_hpa,baro_temp_c,ap_wind_dir_deg,ap_wind_speed_m_s,ap_wind_speed_z_m_s,Sched_UTC,Sched_Error_ms,Cycle_ms,Slots_Skipped,Temp_Age_ms,HB_Armed,HB_CustomMode,HB_BaseMode,HB_SystemStatus,HB_rx_UTC,HB_Age_ms,ATT_rx_UTC,ATT_Age_ms,IMU_rx_UTC,IMU_Age_ms,RIMU_Xacc,RIMU_Yacc,RIMU_Zacc,RIMU_Xgyro,RIMU_Ygyro,RIMU_Zgyro,RIMU_rx_UTC,RIMU_Age_ms,GPS_rx_UTC,GPS_Age_ms,POS_rx_UTC,POS_Age_ms,SYST_UnixUsec,SYST_BootMs,SYST_rx_UTC,SYST_Age_ms,BAT_Cell2_V,BAT_Cell3_V,BAT_Cell4_V,BAT_Energy_hJ,BAT_Temp_cdegC,BAT_TimeRemaining_s,BAT_ChargeState,BAT_rx_UTC,BAT_Age_ms,SYS_Voltage_V,SYS_Current_A,SYS_BatteryRemaining_pct,SYS_Load_pct,SYS_DropRateComm,SYS_ErrorsComm,SYS_SensorsHealth,SYS_rx_UTC,SYS_Age_ms,PWR_Vcc_V,PWR_Vservo_V,PWR_Flags,PWR_rx_UTC,PWR_Age_ms,ESC1_RPM,ESC2_RPM,ESC3_RPM,ESC4_RPM,ESC1_V,ESC2_V,ESC3_V,ESC4_V,ESC1_A,ESC2_A,ESC3_A,ESC4_A,ESC1_degC,ESC2_degC,ESC3_degC,ESC4_degC,ESC_rx_UTC,ESC_Age_ms,VFR_Heading_deg,VFR_Alt_m,VFR_rx_UTC,VFR_Age_ms,SRV5_us,SRV6_us,SRV7_us,SRV8_us,SRV_rx_UTC,SRV_Age_ms,RC1_us,RC2_us,RC3_us,RC4_us,RC_RSSI,RC_rx_UTC,RC_Age_ms,NAV_RollTarget_deg,NAV_PitchTarget_deg,NAV_AltError_m,NAV_AspdError_m_s,NAV_XtrackError_m,NAV_rx_UTC,NAV_Age_ms,MIS_rx_UTC,MIS_Age_ms,VIB_rx_UTC,VIB_Age_ms,EKF_rx_UTC,EKF_Age_ms,BARO_rx_UTC,BARO_Age_ms,WND_rx_UTC,WND_Age_ms
2026-09-29T16:56:19.814Z,2026-09-29T16:56:19.863Z,2026-09-29T10:56:19.863-06:00,0.0,0,False,,0,0,0.036669,0.704165,-128.47891,-0.043545,-0.029221,0.021772,39.0187742,-104.8936036,2167.21,-0.178,0.0,0.0,0.02,231.53,-0.011,0.0,39.0187742,-104.8936036,2165.88,0.01,337.61,32,6,0.68,1.23,0.008,0.028,-0.027,0,-0.02942,-0.107873,-9.80665,0.002,0.0,0.0,75,-152,140,15.17,0.01,1367,58,,1000,1000,1000,1000,0.023,0.022,0.024,0,0,0,831,0.0064,0.0022,0.0016,0.0067,784.828,46.2,-180.0,0.0,0.0,2026-09-29T16:56:19.774Z,0.04,40.898,0,-39.5,0,0,0,0,2026-09-29T16:56:19.797Z,16.7,2026-09-29T16:56:19.807Z,7.2,2026-09-29T16:56:19.808Z,6.6,-5,-10,-1001,0,-1,-1,2026-09-29T16:56:19.811Z,3.3,2026-09-29T16:56:19.813Z,1.4,2026-09-29T16:56:19.810Z,4.5,,,,,,,,715,,,1,2026-09-29T16:56:19.811Z,2.9,15.165,0.01,58,30.0,0.0,0,1198627887,2026-09-29T16:56:19.812Z,2.5,5.248,0.019,1,2026-09-29T16:56:19.782Z,32.1,,,,,,,,,,,,,,,,,,,231,2167.21,2026-09-29T16:56:19.810Z,4.2,0,0,0,0,2026-09-29T16:56:19.810Z,3.8,1508,1514,1529,1493,255,2026-09-29T16:56:19.812Z,1.8,0.0,0.0,0.0,0.0,0.0,2026-09-29T16:56:19.812Z,2.2,2026-09-29T16:56:19.792Z,22.4,2026-09-29T16:56:19.804Z,9.8,2026-09-29T16:56:19.804Z,10.5,2026-09-29T16:56:19.802Z,11.9,2026-09-29T16:56:19.803Z,11.2
2026-09-29T16:56:19.828Z,2026-09-29T16:56:19.877Z,2026-09-29T10:56:19.877-06:00,0.05,1,False,,0,0,0.037242,0.703592,-128.479483,0.002292,0.012032,0.059588,39.0187742,-104.8936036,2167.21,-0.178,0.0,0.0,0.02,231.53,-0.011,0.0,39.0187742,-104.8936036,2165.88,0.01,337.61,32,6,0.68,1.23,0.008,0.028,-0.027,0,-0.02942,-0.098066,-9.80665,0.002,0.001,0.0,76,-152,140,15.17,0.01,1367,58,,1000,1000,1000,1000,0.023,0.022,0.024,0,0,0,831,0.0064,0.0022,0.0016,0.0067,784.828,46.2,-180.0,0.0,0.0,2026-09-29T16:56:19.824Z,0.004,5.05,0,10.5,0,0,0,0,2026-09-29T16:56:19.797Z,30.9,2026-09-29T16:56:19.826Z,2.7,2026-09-29T16:56:19.826Z,2.0,-5,-10,-1001,0,-1,-1,2026-09-29T16:56:19.811Z,17.5,2026-09-29T16:56:19.813Z,15.6,2026-09-29T16:56:19.810Z,18.7,,,,,,,,715,,,1,2026-09-29T16:56:19.811Z,17.0,15.165,0.01,58,30.0,0.0,0,1198627887,2026-09-29T16:56:19.812Z,16.7,5.248,0.019,1,2026-09-29T16:56:19.782Z,46.3,,,,,,,,,,,,,,,,,,,231,2167.21,2026-09-29T16:56:19.810Z,18.4,0,0,0,0,2026-09-29T16:56:19.810Z,17.9,1508,1514,1529,1493,255,2026-09-29T16:56:19.812Z,16.0,0.0,0.0,0.0,0.0,0.0,2026-09-29T16:56:19.812Z,16.4,2026-09-29T16:56:19.792Z,36.6,2026-09-29T16:56:19.804Z,24.0,2026-09-29T16:56:19.804Z,24.7,2026-09-29T16:56:19.802Z,26.0,2026-09-29T16:56:19.803Z,25.4
2026-09-29T16:56:19.878Z,2026-09-29T16:56:19.927Z,2026-09-29T10:56:19.927-06:00,0.1,2,False,,0,0,0.037242,0.704165,-128.479483,0.017189,0.008594,0.022345,39.0187742,-104.8936036,2167.21,-0.178,0.0,0.0,0.02,231.53,-0.011,0.0,39.0187742,-104.8936036,2165.88,0.01,337.61,32,6,0.68,1.23,0.008,0.028,-0.027,0,-0.02942,-0.098066,-9.80665,0.002,0.001,0.0,76,-152,140,15.17,0.01,1367,58,,1000,1000,1000,1000,0.023,0.022,0.024,0,0,0,831,0.0064,0.0022,0.0016,0.0067,784.828,46.2,-180.0,0.0,0.0,2026-09-29T16:56:19.874Z,0.002,4.881,0,60.5,0,0,0,0,2026-09-29T16:56:19.797Z,80.8,2026-09-29T16:56:19.876Z,2.6,2026-09-29T16:56:19.876Z,1.9,-5,-10,-1001,0,-1,-1,2026-09-29T16:56:19.811Z,67.4,2026-09-29T16:56:19.813Z,65.5,2026-09-29T16:56:19.810Z,68.6,,,,,,,,715,,,1,2026-09-29T16:56:19.811Z,66.9,15.165,0.01,58,30.0,0.0,0,1198627887,2026-09-29T16:56:19.812Z,66.6,5.248,0.019,1,2026-09-29T16:56:19.782Z,96.2,,,,,,,,,,,,,,,,,,,231,2167.21,2026-09-29T16:56:19.810Z,68.3,0,0,0,0,2026-09-29T16:56:19.810Z,67.8,1508,1514,1529,1493,255,2026-09-29T16:56:19.812Z,65.9,0.0,0.0,0.0,0.0,0.0,2026-09-29T16:56:19.812Z,66.3,2026-09-29T16:56:19.792Z,86.5,2026-09-29T16:56:19.804Z,73.9,2026-09-29T16:56:19.804Z,74.6,2026-09-29T16:56:19.802Z,75.9,2026-09-29T16:56:19.803Z,75.2
2026-09-29T16:56:19.930Z,2026-09-29T16:56:19.979Z,2026-09-29T10:56:19.979-06:00,0.15,3,False,,0,0,0.037242,0.705311,-128.479483,0.009167,0.032086,0.025783,39.0187742,-104.8936036,2167.21,-0.178,0.0,0.0,0.02,231.53,-0.011,0.0,39.0187742,-104.8936036,2165.88,0.01,337.61,32,6,0.68,1.23,0.008,0.027,-0.026,0,-0.02942,-0.08826,-9.816457,0.002,0.001,0.0,76,-152,140,15.165,0.01,1367,58,,1000,1000,1000,1000,0.023,0.022,0.024,0,0,0,831,0.0064,0.0022,0.0016,0.0067,784.828,46.2,-180.0,0.0,0.0,2026-09-29T16:56:19.924Z,0.001,6.91,0,110.5,0,0,0,0,2026-09-29T16:56:19.797Z,132.8,2026-09-29T16:56:19.928Z,2.6,2026-09-29T16:56:19.928Z,1.9,-6,-10,-1001,0,-1,0,2026-09-29T16:56:19.926Z,4.0,2026-09-29T16:56:19.813Z,117.5,2026-09-29T16:56:19.925Z,5.3,,,,,,,,715,,,1,2026-09-29T16:56:19.927Z,3.6,15.165,0.01,58,30.0,0.0,0,1198627887,2026-09-29T16:56:19.812Z,118.6,5.248,0.019,1,2026-09-29T16:56:19.782Z,148.2,,,,,,,,,,,,,,,,,,,231,2167.21,2026-09-29T16:56:19.925Z,4.9,0,0,0,0,2026-09-29T16:56:19.926Z,4.4,1508,1514,1529,1493,255,2026-09-29T16:56:19.812Z,117.9,0.0,0.0,0.0,0.0,0.0,2026-09-29T16:56:19.812Z,118.3,2026-09-29T16:56:19.792Z,138.5,2026-09-29T16:56:19.804Z,125.9,2026-09-29T16:56:19.804Z,126.6,2026-09-29T16:56:19.802Z,127.9,2026-09-29T16:56:19.803Z,127.3
2026-09-29T16:56:19.978Z,2026-09-29T16:56:20.027Z,2026-09-29T10:56:20.027-06:00,0.2,4,False,,0,0,0.037815,0.705311,-128.479483,0.012032,-0.006875,0.060734,39.0187742,-104.8936036,2167.21,-0.178,0.0,0.0,0.02,231.53,-0.011,0.0,39.0187742,-104.8936036,2165.88,0.01,337.61,32,6,0.68,1.23,0.008,0.027,-0.026,0,-0.019613,-0.08826,-9.80665,0.002,0.0,0.0,76,-152,140,15.165,0.01,1367,58,,1000,1000,1000,1000,0.023,0.022,0.024,0,0,0,831,0.0064,0.0022,0.0016,0.0067,784.828,46.2,-180.0,0.0,0.0,2026-09-29T16:56:19.974Z,0.002,4.85,0,160.5,0,0,0,0,2026-09-29T16:56:19.797Z,180.7,2026-09-29T16:56:19.976Z,2.6,2026-09-29T16:56:19.976Z,1.9,-6,-10,-1001,0,-1,0,2026-09-29T16:56:19.926Z,52.0,2026-09-29T16:56:19.813Z,165.5,2026-09-29T16:56:19.925Z,53.2,,,,,,,,715,,,1,2026-09-29T16:56:19.927Z,51.5,15.165,0.01,58,30.0,0.0,0,1198627887,2026-09-29T16:56:19.812Z,166.6,5.248,0.019,1,2026-09-29T16:56:19.782Z,196.2,,,,,,,,,,,,,,,,,,,231,2167.21,2026-09-29T16:56:19.925Z,52.9,0,0,0,0,2026-09-29T16:56:19.926Z,52.4,1508,1514,1529,1493,255,2026-09-29T16:56:19.812Z,165.8,0.0,0.0,0.0,0.0,0.0,2026-09-29T16:56:19.812Z,166.2,2026-09-29T16:56:19.792Z,186.5,2026-09-29T16:56:19.804Z,173.8,2026-09-29T16:56:19.804Z,174.5,2026-09-29T16:56:19.802Z,175.9,2026-09-29T16:56:19.803Z,175.2
2026-09-29T16:56:20.032Z,2026-09-29T16:56:20.081Z,2026-09-29T10:56:20.081-06:00,0.25,5,False,,0,0,0.036669,0.704738,-128.479483,-0.024637,-0.008594,0.041826,39.0187742,-104.8936036,2167.21,-0.178,0.0,0.0,0.02,231.53,-0.011,0.0,39.0187742,-104.8936036,2165.87,0.01,11.3,32,6,0.68,1.23,0.009,0.028,-0.026,0,-0.02942,-0.098066,-9.80665,0.002,0.0,0.0,76,-152,140,15.165,0.01,1367,58,,1000,1000,1000,1000,0.023,0.022,0.024,0,0,0,831,0.0064,0.0022,0.0016,0.0067,784.828,46.2,-180.0,0.0,0.0,2026-09-29T16:56:20.024Z,0.002,9.135,0,210.5,0,0,0,0,2026-09-29T16:56:19.797Z,234.9,2026-09-29T16:56:20.029Z,2.8,2026-09-29T16:56:20.030Z,2.1,-5,-11,-1001,0,-1,0,2026-09-29T16:56:20.026Z,6.2,2026-09-29T16:56:20.028Z,4.3,2026-09-29T16:56:20.025Z,7.4,,,,,,,,715,,,1,2026-09-29T16:56:20.027Z,5.7,15.171,0.01,58,29.4,0.0,0,1198627887,2026-09-29T16:56:20.027Z,5.4,5.248,0.019,1,2026-09-29T16:56:19.782Z,250.3,,,,,,,,,,,,,,,,,,,231,2167.21,2026-09-29T16:56:20.025Z,7.1,0,0,0,0,2026-09-29T16:56:20.026Z,6.6,1508,1514,1529,1493,255,2026-09-29T16:56:20.028Z,4.7,0.0,0.0,0.0,0.0,0.0,2026-09-29T16:56:20.027Z,5.1,2026-09-29T16:56:19.792Z,240.6,2026-09-29T16:56:19.804Z,228.0,2026-09-29T16:56:19.804Z,228.7,2026-09-29T16:56:19.802Z,230.1,2026-09-29T16:56:19.803Z,229.4
2026-09-29T16:56:20.078Z,2026-09-29T16:56:20.127Z,2026-09-29T10:56:20.127-06:00,0.3,6,False,,0,0,0.036669,0.704738,-128.479483,-0.001146,-0.002865,0.040107,39.0187742,-104.8936036,2167.21,-0.178,0.0,0.0,0.02,231.53,-0.011,0.0,39.0187742,-104.8936036,2165.87,0.01,11.3,32,6,0.68,1.23,0.009,0.028,-0.026,0,-0.019613,-0.098066,-9.80665,0.002,0.001,0.0,76,-152,140,15.165,0.01,1367,58,,1000,1000,1000,1000,0.023,0.022,0.024,0,0,0,831,0.0064,0.0022,0.0016,0.0067,784.828,46.2,-180.0,0.0,0.0,2026-09-29T16:56:20.074Z,0.002,4.966,0,260.5,0,0,0,0,2026-09-29T16:56:19.797Z,280.8,2026-09-29T16:56:20.076Z,2.6,2026-09-29T16:56:20.076Z,1.9,-5,-11,-1001,0,-1,0,2026-09-29T16:56:20.026Z,52.1,2026-09-29T16:56:20.028Z,50.3,2026-09-29T16:56:20.025Z,53.4,,,,,,,,715,,,1,2026-09-29T16:56:20.027Z,51.6,15.171,0.01,58,29.4,0.0,0,1198627887,2026-09-29T16:56:20.027Z,51.3,5.248,0.019,1,2026-09-29T16:56:19.782Z,296.3,,,,,,,,,,,,,,,,,,,231,2167.21,2026-09-29T16:56:20.025Z,53.0,0,0,0,0,2026-09-29T16:56:20.026Z,52.5,1508,1514,1529,1493,255,2026-09-29T16:56:20.028Z,50.7,0.0,0.0,0.0,0.0,0.0,2026-09-29T16:56:20.027Z,51.0,2026-09-29T16:56:19.792Z,286.6,2026-09-29T16:56:19.804Z,274.0,2026-09-29T16:56:19.804Z,274.7,2026-09-29T16:56:19.802Z,276.0,2026-09-29T16:56:19.803Z,275.3
2026-09-29T16:56:20.130Z,2026-09-29T16:56:20.179Z,2026-09-29T10:56:20.179-06:00,0.35,7,False,,0,0,0.036669,0.705311,-128.480056,0.001719,0.018335,0.019481,39.0187742,-104.8936036,2167.21,-0.178,0.0,0.0,0.02,231.53,-0.011,0.0,39.0187742,-104.8936036,2165.87,0.01,11.3,32,6,0.68,1.23,0.009,0.028,-0.026,0,-0.02942,-0.08826,-9.80665,0.002,0.001,0.0,76,-152,140,15.171,0.01,1367,58,,1000,1000,1000,1000,0.023,0.022,0.024,0,0,0,831,0.0064,0.0022,0.0016,0.0067,784.828,46.2,-180.0,0.0,0.0,2026-09-29T16:56:20.124Z,0.002,6.896,0,310.5,0,0,0,0,2026-09-29T16:56:19.797Z,332.8,2026-09-29T16:56:20.128Z,2.6,2026-09-29T16:56:20.128Z,1.9,-6,-10,-1001,0,0,0,2026-09-29T16:56:20.126Z,4.0,2026-09-29T16:56:20.028Z,102.2,2026-09-29T16:56:20.125Z,5.3,,,,,,,,715,,,1,2026-09-29T16:56:20.127Z,3.6,15.171,0.01,58,29.4,0.0,0,1198627887,2026-09-29T16:56:20.027Z,103.2,5.248,0.019,1,2026-09-29T16:56:19.782Z,348.2,,,,,,,,,,,,,,,,,,,231,2167.21,2026-09-29T16:56:20.125Z,4.9,0,0,0,0,2026-09-29T16:56:20.126Z,4.4,1508,1514,1529,1493,255,2026-09-29T16:56:20.028Z,102.6,0.0,0.0,0.0,0.0,0.0,2026-09-29T16:56:20.027Z,102.9,2026-09-29T16:56:19.792Z,338.5,2026-09-29T16:56:19.804Z,325.9,2026-09-29T16:56:19.804Z,326.6,2026-09-29T16:56:19.802Z,327.9,2026-09-29T16:56:19.803Z,327.2
2026-09-29T16:56:20.178Z,2026-09-29T16:56:20.227Z,2026-09-29T10:56:20.227-06:00,0.4,8,False,,0,0,0.037242,0.706457,-128.479483,-0.017762,0.000573,0.053858,39.0187742,-104.8936036,2167.21,-0.178,0.0,0.0,0.02,231.53,-0.011,0.0,39.0187742,-104.8936036,2165.87,0.01,11.3,32,6,0.68,1.23,0.009,0.028,-0.026,0,-0.02942,-0.08826,-9.80665,0.002,0.0,0.0,76,-152,140,15.171,0.01,1367,58,,1000,1000,1000,1000,0.023,0.022,0.024,0,0,0,831,0.0064,0.0022,0.0016,0.0067,784.828,46.2,-180.0,0.0,0.0,2026-09-29T16:56:20.174Z,0.002,4.955,0,360.5,0,0,0,0,2026-09-29T16:56:19.797Z,380.8,2026-09-29T16:56:20.176Z,2.6,2026-09-29T16:56:20.176Z,1.9,-6,-10,-1001,0,0,0,2026-09-29T16:56:20.126Z,52.1,2026-09-29T16:56:20.028Z,150.3,2026-09-29T16:56:20.125Z,53.3,,,,,,,,715,,,1,2026-09-29T16:56:20.127Z,51.6,15.171,0.01,58,29.4,0.0,0,1198627887,2026-09-29T16:56:20.027Z,151.3,5.248,0.019,1,2026-09-29T16:56:19.782Z,396.3,,,,,,,,,,,,,,,,,,,231,2167.21,2026-09-29T16:56:20.125Z,53.0,0,0,0,0,2026-09-29T16:56:20.126Z,52.5,1508,1514,1529,1493,255,2026-09-29T16:56:20.028Z,150.6,0.0,0.0,0.0,0.0,0.0,2026-09-29T16:56:20.027Z,151.0,2026-09-29T16:56:19.792Z,386.6,2026-09-29T16:56:19.804Z,373.9,2026-09-29T16:56:19.804Z,374.7,2026-09-29T16:56:19.802Z,376.0,2026-09-29T16:56:19.803Z,375.3
2026-09-29T16:56:20.235Z,2026-09-29T16:56:20.284Z,2026-09-29T10:56:20.284-06:00,0.45,9,False,,0,0,0.036669,0.706457,-128.47891,-0.013751,0.00974,0.044118,39.0187743,-104.8936036,2167.21,-0.179,0.0,0.0,0.02,231.53,0.0,0.0,39.0187742,-104.8936036,2165.86,0.01,338.19,32,6,0.68,1.23,0.009,0.028,-0.026,0,-0.02942,-0.098066,-9.796843,0.002,0.001,0.0,76,-152,140,15.166,0.01,1367,58,,1000,1000,1000,1000,0.023,0.02,0.022,0,0,0,831,0.0011,0.003,0.0014,0.0071,784.825,46.2,-180.0,0.0,0.0,2026-09-29T16:56:20.224Z,0.003,12.209,0,410.5,0,0,0,0,2026-09-29T16:56:19.797Z,437.9,2026-09-29T16:56:20.231Z,4.7,2026-09-29T16:56:20.231Z,4.0,-5,-10,-1001,0,-1,0,2026-09-29T16:56:20.227Z,8.0,2026-09-29T16:56:20.230Z,5.8,2026-09-29T16:56:20.226Z,9.6,,,,,,,,715,,,1,2026-09-29T16:56:20.228Z,7.5,15.168,0.01,58,29.9,0.0,0,1198627887,2026-09-29T16:56:20.228Z,7.0,5.248,0.019,1,2026-09-29T16:56:19.782Z,453.4,,,,,,,,,,,,,,,,,,,231,2167.21,2026-09-29T16:56:20.226Z,9.1,0,0,0,0,2026-09-29T16:56:20.227Z,8.5,1508,1514,1529,1493,255,2026-09-29T16:56:20.229Z,6.2,0.0,0.0,0.0,0.0,0.0,2026-09-29T16:56:20.229Z,6.6,2026-09-29T16:56:19.792Z,443.7,2026-09-29T16:56:20.235Z,0.3,2026-09-29T16:56:20.235Z,0.7,2026-09-29T16:56:20.234Z,1.2,2026-09-29T16:56:19.803Z,432.4
2026-09-29T16:56:20.278Z,2026-09-29T16:56:20.327Z,2026-09-29T10:56:20.327-06:00,0.5,10,False,,0,0,0.036096,0.705884,-128.47891,-0.021772,-0.023491,0.02521,39.0187743,-104.8936036,2167.21,-0.179,0.0,0.0,0.02,231.53,0.0,0.0,39.0187742,-104.8936036,2165.86,0.01,338.19,32,6,0.68,1.23,0.009,0.028,-0.026,0,-0.02942,-0.08826,-9.80665,0.002,0.0,0.0,76,-152,140,15.166,0.01,1367,58,,1000,1000,1000,1000,0.023,0.02,0.022,0,0,0,831,0.0011,0.003,0.0014,0.0071,784.825,46.2,-180.0,0.0,0.0,2026-09-29T16:56:20.274Z,0.003,5.037,0,460.5,0,0,0,0,2026-09-29T16:56:19.797Z,480.9,2026-09-29T16:56:20.276Z,2.6,2026-09-29T16:56:20.276Z,2.0,-5,-10,-1001,0,-1,0,2026-09-29T16:56:20.227Z,51.0,2026-09-29T16:56:20.230Z,48.8,2026-09-29T16:56:20.226Z,52.6,,,,,,,,715,,,1,2026-09-29T16:56:20.228Z,50.5,15.168,0.01,58,29.9,0.0,0,1198627887,2026-09-29T16:56:20.228Z,50.0,5.248,0.019,1,2026-09-29T16:56:19.782Z,496.4,,,,,,,,,,,,,,,,,,,231,2167.21,2026-09-29T16:56:20.226Z,52.1,0,0,0,0,2026-09-29T16:56:20.227Z,51.5,1508,1514,1529,1493,255,2026-09-29T16:56:20.229Z,49.2,0.0,0.0,0.0,0.0,0.0,2026-09-29T16:56:20.229Z,49.6,2026-09-29T16:56:19.792Z,486.7,2026-09-29T16:56:20.235Z,43.3,2026-09-29T16:56:20.235Z,43.7,2026-09-29T16:56:20.234Z,44.2,2026-09-29T16:56:19.803Z,475.4
2026-09-29T16:56:20.330Z,2026-09-29T16:56:20.379Z,2026-09-29T10:56:20.379-06:00,0.55,11,False,,0,0,0.036096,0.705311,-128.479483,-0.025783,-0.017762,0.048128,39.0187743,-104.8936036,2167.21,-0.179,0.0,0.0,0.02,231.53,0.0,0.0,39.0187742,-104.8936036,2165.86,0.01,338.19,32,6,0.68,1.23,0.01,0.028,-0.026,0,-0.039227,-0.098066,-9.80665,0.002,0.0,0.0,76,-152,140,15.168,0.01,1367,58,,1000,1000,1000,1000,0.023,0.02,0.022,0,0,0,831,0.0011,0.003,0.0014,0.0071,784.825,46.2,-180.0,0.0,0.0,2026-09-29T16:56:20.324Z,0.003,7.131,0,510.5,0,0,0,0,2026-09-29T16:56:19.797Z,533.0,2026-09-29T16:56:20.328Z,2.7,2026-09-29T16:56:20.328Z,2.0,-6,-10,-1001,0,-1,0,2026-09-29T16:56:20.326Z,4.1,2026-09-29T16:56:20.230Z,100.9,2026-09-29T16:56:20.325Z,5.4,,,,,,,,715,,,1,2026-09-29T16:56:20.327Z,3.6,15.168,0.01,58,29.9,0.0,0,1198627887,2026-09-29T16:56:20.228Z,102.1,5.248,0.019,1,2026-09-29T16:56:19.782Z,548.4,,,,,,,,,,,,,,,,,,,231,2167.21,2026-09-29T16:56:20.325Z,5.0,0,0,0,0,2026-09-29T16:56:20.326Z,4.5,1508,1514,1529,1493,255,2026-09-29T16:56:20.229Z,101.3,0.0,0.0,0.0,0.0,0.0,2026-09-29T16:56:20.229Z,101.7,2026-09-29T16:56:19.792Z,538.7,2026-09-29T16:56:20.235Z,95.4,2026-09-29T16:56:20.235Z,95.8,2026-09-29T16:56:20.234Z,96.3,2026-09-29T16:56:19.803Z,527.5
2026-09-29T16:56:20.380Z,2026-09-29T16:56:20.429Z,2026-09-29T10:56:20.429-06:00,0.6,12,False,,0,0,0.036096,0.705884,-128.481202,-0.010886,0.021772,-0.008594,39.0187743,-104.8936036,2167.21,-0.179,0.0,0.0,0.02,231.53,0.0,0.0,39.0187742,-104.8936036,2165.86,0.01,338.19,32,6,0.68,1.23,0.01,0.028,-0.026,0,-0.02942,-0.08826,-9.796843,0.002,0.0,0.0,76,-152,140,15.168,0.01,1367,58,,1000,1000,1000,1000,0.023,0.02,0.022,0,0,0,831,0.0011,0.003,0.0014,0.0071,784.825,46.2,-180.0,0.0,0.0,2026-09-29T16:56:20.374Z,0.004,7.018,0,560.5,0,0,0,0,2026-09-29T16:56:19.797Z,582.7,2026-09-29T16:56:20.377Z,3.4,2026-09-29T16:56:20.378Z,2.5,-6,-10,-1001,0,-1,0,2026-09-29T16:56:20.326Z,53.8,2026-09-29T16:56:20.230Z,150.6,2026-09-29T16:56:20.325Z,55.0,,,,,,,,715,,,1,2026-09-29T16:56:20.327Z,53.3,15.168,0.01,58,29.9,0.0,0,1198627887,2026-09-29T16:56:20.228Z,151.7,5.248,0.019,1,2026-09-29T16:56:19.782Z,598.1,,,,,,,,,,,,,,,,,,,231,2167.21,2026-09-29T16:56:20.325Z,54.7,0,0,0,0,2026-09-29T16:56:20.326Z,54.2,1508,1514,1529,1493,255,2026-09-29T16:56:20.229Z,150.9,0.0,0.0,0.0,0.0,0.0,2026-09-29T16:56:20.229Z,151.3,2026-09-29T16:56:19.792Z,588.4,2026-09-29T16:56:20.235Z,145.0,2026-09-29T16:56:20.235Z,145.5,2026-09-29T16:56:20.234Z,145.9,2026-09-29T16:56:19.803Z,577.1
2026-09-29T16:56:20.432Z,2026-09-29T16:56:20.481Z,2026-09-29T10:56:20.481-06:00,0.65,13,False,,0,0,0.036669,0.70703,-128.481775,0.017762,0.010313,0.049847,39.0187743,-104.8936036,2167.21,-0.179,0.01,0.0,0.02,231.52,0.0,0.0,39.0187742,-104.8936036,2165.87,0.02,326.3,32,6,0.68,1.23,0.011,0.027,-0.025,0,-0.02942,-0.08826,-9.816457,0.002,0.001,0.0,76,-152,140,15.17,0.01,1367,58,,1000,1000,1000,1000,0.023,0.02,0.022,0,0,0,831,0.0011,0.003,0.0014,0.0071,784.825,46.2,-180.0,0.0,0.0,2026-09-29T16:56:20.424Z,0.003,9.14,0,610.5,0,0,0,0,2026-09-29T16:56:19.797Z,635.0,2026-09-29T16:56:20.429Z,3.2,2026-09-29T16:56:20.430Z,2.5,-6,-10,-1002,0,0,-1,2026-09-29T16:56:20.426Z,6.1,2026-09-29T16:56:20.428Z,4.2,2026-09-29T16:56:20.425Z,7.4,,,,,,,,715,,,1,2026-09-29T16:56:20.427Z,5.6,15.173,0.01,58,29.5,0.0,0,1198627887,2026-09-29T16:56:20.427Z,5.3,5.248,0.019,1,2026-09-29T16:56:19.782Z,650.4,,,,,,,,,,,,,,,,,,,231,2167.21,2026-09-29T16:56:20.425Z,7.0,0,0,0,0,2026-09-29T16:56:20.426Z,6.5,1508,1514,1529,1493,255,2026-09-29T16:56:20.428Z,4.6,0.0,0.0,0.0,0.0,0.0,2026-09-29T16:56:20.427Z,5.0,2026-09-29T16:56:19.792Z,640.7,2026-09-29T16:56:20.235Z,197.4,2026-09-29T16:56:20.235Z,197.8,2026-09-29T16:56:20.234Z,198.3,2026-09-29T16:56:19.803Z,629.5
2026-09-29T16:56:20.479Z,2026-09-29T16:56:20.528Z,2026-09-29T10:56:20.528-06:00,0.7,14,False,,0,0,0.036096,0.706457,-128.481775,-0.016043,0.000573,0.061879,39.0187743,-104.8936036,2167.21,-0.179,0.01,0.0,0.02,231.52,0.0,0.0,39.0187742,-104.8936036,2165.87,0.02,326.3,32,6,0.68,1.23,0.011,0.027,-0.025,0,-0.02942,-0.08826,-9.796843,0.002,0.001,0.0,76,-152,140,15.17,0.01,1367,58,,1000,1000,1000,1000,0.023,0.02,0.022,0,0,0,831,0.0011,0.003,0.0014,0.0071,784.825,46.2,-180.0,0.0,0.0,2026-09-29T16:56:20.474Z,0.004,6.424,0,660.5,0,0,0,0,2026-09-29T16:56:19.797Z,682.2,2026-09-29T16:56:20.476Z,3.5,2026-09-29T16:56:20.477Z,2.5,-6,-10,-1002,0,0,-1,2026-09-29T16:56:20.426Z,53.2,2026-09-29T16:56:20.428Z,51.4,2026-09-29T16:56:20.425Z,54.5,,,,,,,,715,,,1,2026-09-29T16:56:20.427Z,52.8,15.173,0.01,58,29.5,0.0,0,1198627887,2026-09-29T16:56:20.427Z,52.4,5.248,0.019,1,2026-09-29T16:56:19.782Z,697.6,,,,,,,,,,,,,,,,,,,231,2167.21,2026-09-29T16:56:20.425Z,54.1,0,0,0,0,2026-09-29T16:56:20.426Z,53.7,1508,1514,1529,1493,255,2026-09-29T16:56:20.428Z,51.8,0.0,0.0,0.0,0.0,0.0,2026-09-29T16:56:20.427Z,52.1,2026-09-29T16:56:19.792Z,687.9,2026-09-29T16:56:20.235Z,244.5,2026-09-29T16:56:20.235Z,244.9,2026-09-29T16:56:20.234Z,245.4,2026-09-29T16:56:19.803Z,676.6
2026-09-29T16:56:20.530Z,2026-09-29T16:56:20.579Z,2026-09-29T10:56:20.579-06:00,0.75,15,False,,0,0,0.03495,0.706457,-128.481775,-0.005157,0.012605,0.044118,39.0187743,-104.8936036,2167.2,-0.18,0.01,0.0,0.02,231.52,0.0,0.0,39.0187742,-104.8936036,2165.87,0.02,326.3,32,6,0.68,1.23,0.01,0.027,-0.025,0,-0.02942,-0.098066,-9.816457,0.002,0.0,0.0,76,-152,140,15.173,0.01,1367,58,,1000,1000,1000,1000,0.023,0.02,0.022,0,0,0,831,0.0011,0.003,0.0014,0.0071,784.825,46.2,-180.0,0.0,0.0,2026-09-29T16:56:20.524Z,0.002,7.142,0,710.5,0,0,0,0,2026-09-29T16:56:19.797Z,733.0,2026-09-29T16:56:20.528Z,2.7,2026-09-29T16:56:20.529Z,1.9,-6,-11,-1002,0,-1,0,2026-09-29T16:56:20.526Z,4.1,2026-09-29T16:56:20.428Z,102.2,2026-09-29T16:56:20.525Z,5.4,,,,,,,,715,,,1,2026-09-29T16:56:20.527Z,3.6,15.173,0.01,58,29.5,0.0,0,1198627887,2026-09-29T16:56:20.427Z,103.3,5.248,0.019,1,2026-09-29T16:56:19.782Z,748.4,,,,,,,,,,,,,,,,,,,231,2167.2,2026-09-29T16:56:20.525Z,5.0,0,0,0,0,2026-09-29T16:56:20.526Z,4.5,1508,1514,1529,1493,255,2026-09-29T16:56:20.428Z,102.6,0.0,0.0,0.0,0.0,0.0,2026-09-29T16:56:20.427Z,103.0,2026-09-29T16:56:19.792Z,738.7,2026-09-29T16:56:20.235Z,295.4,2026-09-29T16:56:20.235Z,295.8,2026-09-29T16:56:20.234Z,296.3,2026-09-29T16:56:19.803Z,727.5
2026-09-29T16:56:20.581Z,2026-09-29T16:56:20.630Z,2026-09-29T10:56:20.630-06:00,0.8,16,True,STABILIZE,0,0,0.033805,0.705311,-128.481775,-0.020054,-0.018335,0.051566,39.0187743,-104.8936036,2167.2,-0.18,0.01,0.0,0.02,231.52,0.0,0.0,39.0187742,-104.8936036,2165.87,0.02,326.3,32,6,0.68,1.23,0.01,0.027,-0.025,0,-0.039227,-0.098066,-9.80665,0.001,0.001,0.0,76,-152,140,15.173,0.01,1367,58,,1000,1000,1000,1000,0.023,0.02,0.022,0,0,0,831,0.0011,0.003,0.0014,0.0071,784.825,46.2,-180.0,0.0,0.0,2026-09-29T16:56:20.574Z,0.002,7.339,0,760.5,1,0,209,3,2026-09-29T16:56:20.576Z,4.8,2026-09-29T16:56:20.578Z,2.7,2026-09-29T16:56:20.579Z,2.0,-6,-11,-1002,0,-1,0,2026-09-29T16:56:20.526Z,54.3,2026-09-29T16:56:20.428Z,152.4,2026-09-29T16:56:20.525Z,55.6,,,,,,,,715,,,1,2026-09-29T16:56:20.527Z,53.8,15.173,0.01,58,29.5,0.0,0,1198627887,2026-09-29T16:56:20.427Z,153.5,5.248,0.019,1,2026-09-29T16:56:19.782Z,798.6,,,,,,,,,,,,,,,,,,,231,2167.2,2026-09-29T16:56:20.525Z,55.2,0,0,0,0,2026-09-29T16:56:20.526Z,54.7,1508,1514,1529,1493,255,2026-09-29T16:56:20.428Z,152.8,0.0,0.0,0.0,0.0,0.0,2026-09-29T16:56:20.427Z,153.2,2026-09-29T16:56:19.792Z,788.9,2026-09-29T16:56:20.235Z,345.6,2026-09-29T16:56:20.235Z,346.0,2026-09-29T16:56:20.234Z,346.5,2026-09-29T16:56:19.803Z,777.7
2026-09-29T16:56:20.633Z,2026-09-29T16:56:20.682Z,2026-09-29T10:56:20.682-06:00,0.85,17,True,STABILIZE,0,0,0.033232,0.704738,-128.482921,-0.007448,-0.004011,-0.019481,39.0187743,-104.8936036,2167.2,0.008,0.01,0.0,0.02,231.52,0.0,0.0,39.0187742,-104.8936036,2165.87,0.01,130.23,32,6,0.68,1.23,0.01,0.027,-0.025,0,-0.019613,-0.08826,-9.80665,0.002,0.001,0.0,76,-152,140,15.163,0.0,1367,58,,1000,1000,1000,1000,0.023,0.02,0.022,0,0,0,831,0.0011,0.003,0.0014,0.0071,784.825,46.2,-180.0,0.0,0.0,2026-09-29T16:56:20.624Z,0.002,9.68,0,810.5,1,0,209,3,2026-09-29T16:56:20.576Z,57.1,2026-09-29T16:56:20.629Z,3.9,2026-09-29T16:56:20.630Z,3.3,-6,-10,-1001,0,-1,0,2026-09-29T16:56:20.626Z,6.7,2026-09-29T16:56:20.628Z,4.9,2026-09-29T16:56:20.625Z,8.0,1790700980685077.0,2233467.0,2026-09-29T16:56:20.632Z,0.6,,,,715,,,1,2026-09-29T16:56:20.627Z,6.3,15.17,0.01,58,31.0,0.0,0,1198627887,2026-09-29T16:56:20.627Z,5.9,5.231,0.014,1,2026-09-29T16:56:20.632Z,1.3,,,,,,,,,,,,,,,,,,,231,2167.2,2026-09-29T16:56:20.625Z,7.6,0,0,0,0,2026-09-29T16:56:20.626Z,7.2,1508,1514,1529,1493,255,2026-09-29T16:56:20.628Z,5.3,0.0,0.0,0.0,0.0,0.0,2026-09-29T16:56:20.627Z,5.6,2026-09-29T16:56:20.632Z,0.9,2026-09-29T16:56:20.235Z,397.9,2026-09-29T16:56:20.235Z,398.3,2026-09-29T16:56:20.234Z,398.8,2026-09-29T16:56:20.633Z,0.2
2026-09-29T16:56:20.678Z,2026-09-29T16:56:20.727Z,2026-09-29T10:56:20.727-06:00,0.9,18,True,STABILIZE,0,0,0.033232,0.704738,-128.482348,0.02521,-0.003438,0.017762,39.0187743,-104.8936036,2167.2,0.008,0.01,0.0,0.02,231.52,0.0,0.0,39.0187742,-104.8936036,2165.87,0.01,130.23,32,6,0.68,1.23,0.01,0.027,-0.025,0,-0.02942,-0.098066,-9.816457,0.002,0.001,0.0,76,-152,140,15.163,0.0,1367,58,,1000,1000,1000,1000,0.023,0.02,0.022,0,0,0,831,0.0011,0.003,0.0014,0.0071,784.825,46.2,-180.0,0.0,0.0,2026-09-29T16:56:20.674Z,0.002,4.887,0,860.5,1,0,209,3,2026-09-29T16:56:20.576Z,102.3,2026-09-29T16:56:20.676Z,2.6,2026-09-29T16:56:20.676Z,1.9,-6,-10,-1001,0,-1,0,2026-09-29T16:56:20.626Z,52.0,2026-09-29T16:56:20.628Z,50.1,2026-09-29T16:56:20.625Z,53.2,1790700980685077.0,2233467.0,2026-09-29T16:56:20.632Z,45.8,,,,715,,,1,2026-09-29T16:56:20.627Z,51.5,15.17,0.01,58,31.0,0.0,0,1198627887,2026-09-29T16:56:20.627Z,51.2,5.231,0.014,1,2026-09-29T16:56:20.632Z,46.5,,,,,,,,,,,,,,,,,,,231,2167.2,2026-09-29T16:56:20.625Z,52.9,0,0,0,0,2026-09-29T16:56:20.626Z,52.4,1508,1514,1529,1493,255,2026-09-29T16:56:20.628Z,50.5,0.0,0.0,0.0,0.0,0.0,2026-09-29T16:56:20.627Z,50.8,2026-09-29T16:56:20.632Z,46.2,2026-09-29T16:56:20.235Z,443.1,2026-09-29T16:56:20.235Z,443.5,2026-09-29T16:56:20.234Z,444.0,2026-09-29T16:56:20.633Z,45.5
2026-09-29T16:56:20.731Z,2026-09-29T16:56:20.780Z,2026-09-29T10:56:20.780-06:00,0.95,19,True,STABILIZE,0,0,0.032659,0.704165,-128.481775,-0.001719,-0.010886,0.025783,39.0187743,-104.8936036,2167.2,0.005,0.0,0.0,0.02,231.52,0.0,0.0,39.0187742,-104.8936036,2165.87,0.01,130.23,32,6,0.68,1.23,0.009,0.027,-0.025,0,-0.019613,-0.08826,-9.80665,0.002,0.001,0.0,76,-152,140,15.17,0.01,1367,58,,1000,1000,1000,1000,0.023,0.021,0.025,0,0,0,831,0.0192,0.0031,0.0223,0.0058,784.818,46.21,-180.0,0.0,0.0,2026-09-29T16:56:20.724Z,0.003,8.112,0,910.5,1,0,209,3,2026-09-29T16:56:20.576Z,155.5,2026-09-29T16:56:20.728Z,3.6,2026-09-29T16:56:20.728Z,2.9,-6,-11,-1000,0,0,0,2026-09-29T16:56:20.726Z,5.0,2026-09-29T16:56:20.628Z,103.3,2026-09-29T16:56:20.725Z,6.4,1790700980685077.0,2233467.0,2026-09-29T16:56:20.632Z,98.9,,,,715,,,1,2026-09-29T16:56:20.727Z,4.6,15.17,0.01,58,31.0,0.0,0,1198627887,2026-09-29T16:56:20.627Z,104.3,5.231,0.014,1,2026-09-29T16:56:20.632Z,99.6,,,,,,,,,,,,,,,,,,,231,2167.2,2026-09-29T16:56:20.725Z,6.0,0,0,0,0,2026-09-29T16:56:20.726Z,5.5,1508,1514,1529,1493,255,2026-09-29T16:56:20.628Z,103.6,0.0,0.0,0.0,0.0,0.0,2026-09-29T16:56:20.627Z,104.0,2026-09-29T16:56:20.632Z,99.3,2026-09-29T16:56:20.731Z,0.2,2026-09-29T16:56:20.731Z,0.6,2026-09-29T16:56:20.730Z,0.9,2026-09-29T16:56:20.633Z,98.6
2026-09-29T16:56:20.778Z,2026-09-29T16:56:20.827Z,2026-09-29T10:56:20.827-06:00,1.0,20,True,STABILIZE,0,0,0.031513,0.703592,-128.480629,-0.008021,-0.01547,0.006875,39.0187743,-104.8936036,2167.2,0.005,0.0,0.0,0.02,231.52,0.0,0.0,39.0187742,-104.8936036,2165.87,0.01,130.23,32,6,0.68,1.23,0.009,0.027,-0.025,0,-0.019613,-0.098066,-9.816457,0.002,0.0,0.0,76,-152,140,15.17,0.01,1367,58,,1000,1000,1000,1000,0.023,0.021,0.025,0,0,0,831,0.0192,0.0031,0.0223,0.0058,784.818,46.21,-180.0,0.0,0.0,2026-09-29T16:56:20.774Z,0.002,4.89,0,960.5,1,0,209,3,2026-09-29T16:56:20.576Z,202.3,2026-09-29T16:56:20.776Z,2.6,2026-09-29T16:56:20.776Z,1.9,-6,-11,-1000,0,0,0,2026-09-29T16:56:20.726Z,51.9,2026-09-29T16:56:20.628Z,150.1,2026-09-29T16:56:20.725Z,53.2,1790700980685077.0,2233467.0,2026-09-29T16:56:20.632Z,145.8,,,,715,,,1,2026-09-29T16:56:20.727Z,51.4,15.17,0.01,58,31.0,0.0,0,1198627887,2026-09-29T16:56:20.627Z,151.2,5.231,0.014,1,2026-09-29T16:56:20.632Z,146.5,,,,,,,,,,,,,,,,,,,231,2167.2,2026-09-29T16:56:20.725Z,52.8,0,0,0,0,2026-09-29T16:56:20.726Z,52.3,1508,1514,1529,1493,255,2026-09-29T16:56:20.628Z,150.5,0.0,0.0,0.0,0.0,0.0,2026-09-29T16:56:20.627Z,150.8,2026-09-29T16:56:20.632Z,146.2,2026-09-29T16:56:20.731Z,47.1,2026-09-29T16:56:20.731Z,47.4,2026-09-29T16:56:20.730Z,47.8,2026-09-29T16:56:20.633Z,145.5
2026-09-29T16:56:20.833Z,2026-09-29T16:56:20.882Z,2026-09-29T10:56:20.882-06:00,1.05,21,True,STABILIZE,0,0,0.030367,0.703019,-128.480629,-0.010886,-0.00974,0.028648,39.0187743,-104.8936036,2167.2,0.002,0.0,0.0,0.02,231.52,0.0,0.0,39.0187742,-104.8936036,2165.88,0.0,125.53,32,6,0.68,1.23,0.009,0.026,-0.025,0,-0.02942,-0.098066,-9.80665,0.002,0.0,0.0,76,-152,140,15.165,0.01,1367,58,,1000,1000,1000,1000,0.023,0.021,0.025,0,0,0,831,0.0192,0.0031,0.0223,0.0058,784.818,46.21,-180.0,0.0,0.0,2026-09-29T16:56:20.824Z,0.002,9.711,0,-8.4,0,0,0,0,2026-09-29T16:56:20.827Z,5.7,2026-09-29T16:56:20.830Z,3.3,2026-09-29T16:56:20.830Z,2.7,-5,-10,-1002,0,-1,0,2026-09-29T16:56:20.826Z,6.8,2026-09-29T16:56:20.829Z,4.3,2026-09-29T16:56:20.825Z,8.0,1790700980685077.0,2233467.0,2026-09-29T16:56:20.632Z,200.6,,,,715,,,1,2026-09-29T16:56:20.827Z,6.3,15.158,0.0,58,29.1,0.0,0,1198627887,2026-09-29T16:56:20.828Z,5.4,5.231,0.014,1,2026-09-29T16:56:20.632Z,201.2,,,,,,,,,,,,,,,,,,,231,2167.2,2026-09-29T16:56:20.825Z,7.7,0,0,0,0,2026-09-29T16:56:20.826Z,7.2,1508,1514,1529,1493,255,2026-09-29T16:56:20.828Z,4.6,0.0,0.0,0.0,0.0,0.0,2026-09-29T16:56:20.828Z,5.1,2026-09-29T16:56:20.632Z,200.9,2026-09-29T16:56:20.731Z,101.9,2026-09-29T16:56:20.731Z,102.2,2026-09-29T16:56:20.730Z,102.5,2026-09-29T16:56:20.633Z,200.2
2026-09-29T16:56:20.878Z,2026-09-29T16:56:20.927Z,2026-09-29T10:56:20.927-06:00,1.1,22,True,STABILIZE,0,0,0.030367,0.702446,-128.480056,-0.010886,0.001719,0.027502,39.0187743,-104.8936036,2167.2,0.002,0.0,0.0,0.02,231.52,0.0,0.0,39.0187742,-104.8936036,2165.88,0.0,125.53,32,6,0.68,1.23,0.009,0.026,-0.025,0,-0.02942,-0.08826,-9.80665,0.002,0.001,0.0,76,-152,140,15.165,0.01,1367,58,,1000,1000,1000,1000,0.023,0.021,0.025,0,0,0,831,0.0192,0.0031,0.0223,0.0058,784.818,46.21,-180.0,0.0,0.0,2026-09-29T16:56:20.874Z,0.002,4.978,0,41.6,0,0,0,0,2026-09-29T16:56:20.827Z,51.0,2026-09-29T16:56:20.876Z,2.6,2026-09-29T16:56:20.876Z,1.9,-5,-10,-1002,0,-1,0,2026-09-29T16:56:20.826Z,52.1,2026-09-29T16:56:20.829Z,49.6,2026-09-29T16:56:20.825Z,53.3,1790700980685077.0,2233467.0,2026-09-29T16:56:20.632Z,245.9,,,,715,,,1,2026-09-29T16:56:20.827Z,51.6,15.158,0.0,58,29.1,0.0,0,1198627887,2026-09-29T16:56:20.828Z,50.7,5.231,0.014,1,2026-09-29T16:56:20.632Z,246.6,,,,,,,,,,,,,,,,,,,231,2167.2,2026-09-29T16:56:20.825Z,53.0,0,0,0,0,2026-09-29T16:56:20.826Z,52.5,1508,1514,1529,1493,255,2026-09-29T16:56:20.828Z,50.0,0.0,0.0,0.0,0.0,0.0,2026-09-29T16:56:20.828Z,50.4,2026-09-29T16:56:20.632Z,246.2,2026-09-29T16:56:20.731Z,147.2,2026-09-29T16:56:20.731Z,147.5,2026-09-29T16:56:20.730Z,147.8,2026-09-29T16:56:20.633Z,245.5
2026-09-29T16:56:20.930Z,2026-09-29T16:56:20.979Z,2026-09-29T10:56:20.979-06:00,1.15,23,True,STABILIZE,0,0,0.029221,0.703019,-128.480056,-0.018335,0.028075,0.026929,39.0187743,-104.8936036,2167.19,0.0,0.0,0.0,0.02,231.53,0.0,0.0,39.0187742,-104.8936036,2165.88,0.0,125.53,32,6,0.68,1.23,0.008,0.026,-0.024,0,-0.039227,-0.098066,-9.816457,0.002,0.001,0.0,76,-152,140,15.158,0.0,1367,58,,1000,1000,1000,1000,0.023,0.021,0.025,0,0,0,831,0.0192,0.0031,0.0223,0.0058,784.818,46.21,-180.0,0.0,0.0,2026-09-29T16:56:20.924Z,0.002,6.956,0,91.6,0,0,0,0,2026-09-29T16:56:20.827Z,103.0,2026-09-29T16:56:20.928Z,2.6,2026-09-29T16:56:20.928Z,1.9,-6,-10,-1001,0,0,0,2026-09-29T16:56:20.926Z,4.0,2026-09-29T16:56:20.829Z,101.6,2026-09-29T16:56:20.925Z,5.3,1790700980685077.0,2233467.0,2026-09-29T16:56:20.632Z,297.8,,,,715,,,1,2026-09-29T16:56:20.927Z,3.6,15.158,0.0,58,29.1,0.0,0,1198627887,2026-09-29T16:56:20.828Z,102.7,5.231,0.014,1,2026-09-29T16:56:20.632Z,298.5,,,,,,,,,,,,,,,,,,,231,2167.19,2026-09-29T16:56:20.925Z,4.9,0,0,0,0,2026-09-29T16:56:20.926Z,4.4,1508,1514,1529,1493,255,2026-09-29T16:56:20.828Z,101.9,0.0,0.0,0.0,0.0,0.0,2026-09-29T16:56:20.828Z,102.3,2026-09-29T16:56:20.632Z,298.2,2026-09-29T16:56:20.731Z,199.2,2026-09-29T16:56:20.731Z,199.5,2026-09-29T16:56:20.730Z,199.8,2026-09-29T16:56:20.633Z,297.5
2026-09-29T16:56:20.978Z,2026-09-29T16:56:21.027Z,2026-09-29T10:56:21.027-06:00,1.2,24,True,STABILIZE,0,0,0.028648,0.704165,-128.47891,-0.008021,0.025783,0.072193,39.0187743,-104.8936036,2167.19,0.0,0.0,0.0,0.02,231.53,0.0,0.0,39.0187742,-104.8936036,2165.88,0.0,125.53,32,6,0.68,1.23,0.008,0.026,-0.024,0,-0.02942,-0.08826,-9.816457,0.002,0.0,0.0,76,-152,140,15.158,0.0,1367,58,,1000,1000,1000,1000,0.023,0.021,0.025,0,0,0,831,0.0192,0.0031,0.0223,0.0058,784.818,46.21,-180.0,0.0,0.0,2026-09-29T16:56:20.974Z,0.002,4.877,0,141.6,0,0,0,0,2026-09-29T16:56:20.827Z,150.9,2026-09-29T16:56:20.976Z,2.6,2026-09-29T16:56:20.976Z,1.9,-6,-10,-1001,0,0,0,2026-09-29T16:56:20.926Z,52.0,2026-09-29T16:56:20.829Z,149.5,2026-09-29T16:56:20.925Z,53.2,1790700980685077.0,2233467.0,2026-09-29T16:56:20.632Z,345.8,,,,715,,,1,2026-09-29T16:56:20.927Z,51.5,15.158,0.0,58,29.1,0.0,0,1198627887,2026-09-29T16:56:20.828Z,150.6,5.231,0.014,1,2026-09-29T16:56:20.632Z,346.5,,,,,,,,,,,,,,,,,,,231,2167.19,2026-09-29T16:56:20.925Z,52.9,0,0,0,0,2026-09-29T16:56:20.926Z,52.4,1508,1514,1529,1493,255,2026-09-29T16:56:20.828Z,149.9,0.0,0.0,0.0,0.0,0.0,2026-09-29T16:56:20.828Z,150.3,2026-09-29T16:56:20.632Z,346.2,2026-09-29T16:56:20.731Z,247.1,2026-09-29T16:56:20.731Z,247.4,2026-09-29T16:56:20.730Z,247.7,2026-09-29T16:56:20.633Z,345.5
2026-09-29T16:56:21.031Z,2026-09-29T16:56:21.080Z,2026-09-29T10:56:21.080-06:00,1.25,25,True,STABILIZE,0,0,0.027502,0.704165,-128.47891,-0.024064,0.01547,0.018908,39.0187743,-104.8936036,2167.19,-0.001,0.0,0.0,0.02,231.53,0.0,0.0,39.0187742,-104.8936036,2165.88,0.0,23.19,32,6,0.68,1.23,0.008,0.025,-0.024,0,-0.02942,-0.08826,-9.816457,0.002,0.001,0.0,76,-152,140,15.167,0.01,1367,58,,1000,1000,1000,1000,0.023,0.021,0.025,0,0,0,831,0.0192,0.0031,0.0223,0.0058,784.818,46.21,-180.0,0.0,0.0,2026-09-29T16:56:21.024Z,0.002,8.344,0,191.6,0,0,0,0,2026-09-29T16:56:20.827Z,204.3,2026-09-29T16:56:21.029Z,2.6,2026-09-29T16:56:21.030Z,1.9,-6,-10,-1001,0,-1,0,2026-09-29T16:56:21.026Z,5.4,2026-09-29T16:56:21.028Z,3.6,2026-09-29T16:56:21.025Z,6.6,1790700980685077.0,2233467.0,2026-09-29T16:56:20.632Z,399.2,,,,715,,,1,2026-09-29T16:56:21.027Z,4.9,15.164,0.01,58,29.3,0.0,0,1198627887,2026-09-29T16:56:21.027Z,4.6,5.231,0.014,1,2026-09-29T16:56:20.632Z,399.9,,,,,,,,,,,,,,,,,,,231,2167.19,2026-09-29T16:56:21.025Z,6.3,0,0,0,0,2026-09-29T16:56:21.026Z,5.8,1508,1514,1529,1493,255,2026-09-29T16:56:21.028Z,3.9,0.0,0.0,0.0,0.0,0.0,2026-09-29T16:56:21.027Z,4.3,2026-09-29T16:56:20.632Z,399.5,2026-09-29T16:56:20.731Z,300.5,2026-09-29T16:56:20.731Z,300.8,2026-09-29T16:56:20.730Z,301.1,2026-09-29T16:56:20.633Z,398.8
2026-09-29T16:56:21.080Z,2026-09-29T16:56:21.129Z,2026-09-29T10:56:21.129-06:00,1.3,26,True,STABILIZE,0,0,0.026356,0.703592,-128.478337,-0.017762,-0.002865,0.041253,39.0187743,-104.8936036,2167.19,-0.001,0.0,0.0,0.02,231.53,0.0,0.0,39.0187742,-104.8936036,2165.88,0.0,23.19,32,6,0.68,1.23,0.008,0.025,-0.024,0,-0.02942,-0.078453,-9.80665,0.002,0.001,0.0,76,-152,140,15.167,0.01,1367,58,,1000,1000,1000,1000,0.023,0.021,0.025,0,0,0,831,0.0192,0.0031,0.0223,0.0058,784.818,46.21,-180.0,0.0,0.0,2026-09-29T16:56:21.074Z,0.003,6.902,0,241.6,0,0,0,0,2026-09-29T16:56:20.827Z,252.5,2026-09-29T16:56:21.076Z,3.7,2026-09-29T16:56:21.077Z,2.7,-6,-10,-1001,0,-1,0,2026-09-29T16:56:21.026Z,53.6,2026-09-29T16:56:21.028Z,51.7,2026-09-29T16:56:21.025Z,54.8,1790700980685077.0,2233467.0,2026-09-29T16:56:20.632Z,447.3,,,,715,,,1,2026-09-29T16:56:21.027Z,53.1,15.164,0.01,58,29.3,0.0,0,1198627887,2026-09-29T16:56:21.027Z,52.8,5.231,0.014,1,2026-09-29T16:56:20.632Z,448.0,,,,,,,,,,,,,,,,,,,231,2167.19,2026-09-29T16:56:21.025Z,54.5,0,0,0,0,2026-09-29T16:56:21.026Z,54.0,1508,1514,1529,1493,255,2026-09-29T16:56:21.028Z,52.1,0.0,0.0,0.0,0.0,0.0,2026-09-29T16:56:21.027Z,52.4,2026-09-29T16:56:20.632Z,447.7,2026-09-29T16:56:20.731Z,348.6,2026-09-29T16:56:20.731Z,349.0,2026-09-29T16:56:20.730Z,349.3,2026-09-29T16:56:20.633Z,447.0
2026-09-29T16:56:21.133Z,2026-09-29T16:56:21.182Z,2026-09-29T10:56:21.182-06:00,1.35,27,True,STABILIZE,0,0,0.025783,0.703019,-128.47891,-0.018335,0.002865,0.025783,39.0187743,-104.8936036,2167.19,-0.002,0.0,0.0,0.02,231.53,0.0,0.0,39.0187742,-104.8936036,2165.88,0.0,23.19,32,6,0.68,1.23,0.006,0.024,-0.024,0,-0.019613,-0.098066,-9.80665,0.002,0.001,0.0,76,-152,140,15.164,0.01,1367,58,,1000,1000,1000,1000,0.023,0.021,0.025,0,0,0,831,0.0192,0.0031,0.0223,0.0058,784.818,46.21,-180.0,0.0,0.0,2026-09-29T16:56:21.124Z,0.003,10.314,0,291.6,0,0,0,0,2026-09-29T16:56:20.827Z,305.9,2026-09-29T16:56:21.129Z,3.7,2026-09-29T16:56:21.130Z,2.8,-4,-9,-1002,0,0,0,2026-09-29T16:56:21.127Z,6.3,2026-09-29T16:56:21.028Z,105.2,2026-09-29T16:56:21.125Z,8.1,1790700980685077.0,2233467.0,2026-09-29T16:56:20.632Z,500.8,,,,715,,,1,2026-09-29T16:56:21.128Z,5.6,15.164,0.01,58,29.3,0.0,0,1198627887,2026-09-29T16:56:21.027Z,106.2,5.231,0.014,1,2026-09-29T16:56:20.632Z,501.5,,,,,,,,,,,,,,,,,,,231,2167.19,2026-09-29T16:56:21.126Z,7.6,0,0,0,0,2026-09-29T16:56:21.126Z,6.9,1508,1514,1529,1493,255,2026-09-29T16:56:21.028Z,105.5,0.0,0.0,0.0,0.0,0.0,2026-09-29T16:56:21.027Z,105.9,2026-09-29T16:56:20.632Z,501.1,2026-09-29T16:56:20.731Z,402.1,2026-09-29T16:56:20.731Z,402.4,2026-09-29T16:56:20.730Z,402.7,2026-09-29T16:56:20.633Z,500.4
2026-09-29T16:56:21.181Z,2026-09-29T16:56:21.230Z,2026-09-29T10:56:21.230-06:00,1.4,28,True,STABILIZE,0,0,0.02521,0.703019,-128.479483,-0.00974,0.00974,0.029221,39.0187743,-104.8936036,2167.19,-0.002,0.0,0.0,0.02,231.53,0.0,0.0,39.0187742,-104.8936036,2165.88,0.0,23.19,32,6,0.68,1.23,0.006,0.024,-0.024,0,-0.019613,-0.098066,-9.796843,0.002,0.0,0.0,76,-152,140,15.164,0.01,1367,58,,1000,1000,1000,1000,0.023,0.021,0.025,0,0,0,831,0.0192,0.0031,0.0223,0.0058,784.818,46.21,-180.0,0.0,0.0,2026-09-29T16:56:21.174Z,0.003,8.489,0,341.6,0,0,0,0,2026-09-29T16:56:20.827Z,354.1,2026-09-29T16:56:21.177Z,4.2,2026-09-29T16:56:21.178Z,3.3,-4,-9,-1002,0,0,0,2026-09-29T16:56:21.127Z,54.5,2026-09-29T16:56:21.028Z,153.4,2026-09-29T16:56:21.125Z,56.2,1790700980685077.0,2233467.0,2026-09-29T16:56:20.632Z,548.9,,,,715,,,1,2026-09-29T16:56:21.128Z,53.8,15.164,0.01,58,29.3,0.0,0,1198627887,2026-09-29T16:56:21.027Z,154.4,5.231,0.014,1,2026-09-29T16:56:20.632Z,549.6,,,,,,,,,,,,,,,,,,,231,2167.19,2026-09-29T16:56:21.126Z,55.8,0,0,0,0,2026-09-29T16:56:21.126Z,55.1,1508,1514,1529,1493,255,2026-09-29T16:56:21.028Z,153.7,0.0,0.0,0.0,0.0,0.0,2026-09-29T16:56:21.027Z,154.1,2026-09-29T16:56:20.632Z,549.3,2026-09-29T16:56:20.731Z,450.3,2026-09-29T16:56:20.731Z,450.6,2026-09-29T16:56:20.730Z,450.9,2026-09-29T16:56:20.633Z,548.6
2026-09-29T16:56:21.236Z,2026-09-29T16:56:21.285Z,2026-09-29T10:56:21.285-06:00,1.45,29,True,STABILIZE,0,0,0.024637,0.704165,-128.479483,-0.013751,0.021772,0.002865,39.0187742,-104.8936036,2167.19,-0.006,0.0,0.0,0.02,231.53,-0.011,0.0,39.0187742,-104.8936036,2165.87,0.01,203.19,32,6,0.68,1.23,0.005,0.024,-0.024,0,-0.019613,-0.098066,-9.796843,0.002,0.001,0.0,76,-152,140,15.165,0.01,1367,58,,1000,1000,1000,1000,0.022,0.022,0.023,0,0,0,831,0.0153,0.0027,0.0386,0.0121,784.846,46.22,-180.0,0.0,0.0,2026-09-29T16:56:21.224Z,0.002,13.285,0,391.6,0,0,0,0,2026-09-29T16:56:20.827Z,408.8,2026-09-29T16:56:21.231Z,5.1,2026-09-29T16:56:21.232Z,4.2,-5,-10,-1001,0,0,0,2026-09-29T16:56:21.227Z,9.1,2026-09-29T16:56:21.230Z,6.4,2026-09-29T16:56:21.225Z,10.8,1790700980685077.0,2233467.0,2026-09-29T16:56:20.632Z,603.7,,,,715,,,1,2026-09-29T16:56:21.228Z,8.4,15.166,0.01,58,30.0,0.0,0,1198627887,2026-09-29T16:56:21.228Z,7.9,5.231,0.014,1,2026-09-29T16:56:20.632Z,604.3,,,,,,,,,,,,,,,,,,,231,2167.19,2026-09-29T16:56:21.226Z,10.3,0,0,0,0,2026-09-29T16:56:21.226Z,9.6,1508,1514,1529,1493,255,2026-09-29T16:56:21.229Z,6.9,0.0,0.0,0.0,0.0,0.0,2026-09-29T16:56:21.229Z,7.4,2026-09-29T16:56:20.632Z,604.0,2026-09-29T16:56:21.236Z,0.3,2026-09-29T16:56:21.235Z,0.8,2026-09-29T16:56:21.235Z,1.2,2026-09-29T16:56:20.633Z,603.3
2026-09-29T16:56:21.280Z,2026-09-29T16:56:21.329Z,2026-09-29T10:56:21.329-06:00,1.5,30,True,STABILIZE,0,0,0.024637,0.704738,-128.478337,0.011459,0.002865,0.031513,39.0187742,-104.8936036,2167.19,-0.006,0.0,0.0,0.02,231.53,-0.011,0.0,39.0187742,-104.8936036,2165.87,0.01,203.19,32,6,0.68,1.23,0.005,0.024,-0.024,0,-0.039227,-0.098066,-9.80665,0.002,0.0,0.0,76,-152,140,15.165,0.01,1367,58,,1000,1000,1000,1000,0.022,0.022,0.023,0,0,0,831,0.0153,0.0027,0.0386,0.0121,784.846,46.22,-180.0,0.0,0.0,2026-09-29T16:56:21.274Z,0.003,6.873,0,441.6,0,0,0,0,2026-09-29T16:56:20.827Z,452.4,2026-09-29T16:56:21.276Z,3.6,2026-09-29T16:56:21.277Z,2.7,-5,-10,-1001,0,0,0,2026-09-29T16:56:21.227Z,52.7,2026-09-29T16:56:21.230Z,50.0,2026-09-29T16:56:21.225Z,54.5,1790700980685077.0,2233467.0,2026-09-29T16:56:20.632Z,647.3,,,,715,,,1,2026-09-29T16:56:21.228Z,52.0,15.166,0.01,58,30.0,0.0,0,1198627887,2026-09-29T16:56:21.228Z,51.6,5.231,0.014,1,2026-09-29T16:56:20.632Z,648.0,,,,,,,,,,,,,,,,,,,231,2167.19,2026-09-29T16:56:21.226Z,53.9,0,0,0,0,2026-09-29T16:56:21.226Z,53.3,1508,1514,1529,1493,255,2026-09-29T16:56:21.229Z,50.5,0.0,0.0,0.0,0.0,0.0,2026-09-29T16:56:21.229Z,51.0,2026-09-29T16:56:20.632Z,647.6,2026-09-29T16:56:21.236Z,43.9,2026-09-29T16:56:21.235Z,44.4,2026-09-29T16:56:21.235Z,44.9,2026-09-29T16:56:20.633Z,646.9
2026-09-29T16:56:21.332Z,2026-09-29T16:56:21.381Z,2026-09-29T10:56:21.381-06:00,1.55,31,True,STABILIZE,0,0,0.024637,0.703592,-128.479483,-0.006303,0.001146,0.012032,39.0187742,-104.8936036,2167.18,-0.012,0.0,0.0,0.02,231.53,-0.011,0.0,39.0187742,-104.8936036,2165.87,0.01,203.19,32,6,0.68,1.23,0.005,0.025,-0.024,0,-0.039227,-0.098066,-9.80665,0.002,0.001,0.0,76,-152,140,15.166,0.01,1367,58,,1000,1000,1000,1000,0.022,0.022,0.023,0,0,0,831,0.0153,0.0027,0.0386,0.0121,784.846,46.22,-180.0,0.0,0.0,2026-09-29T16:56:21.324Z,0.002,9.71,0,491.6,0,0,0,0,2026-09-29T16:56:20.827Z,505.3,2026-09-29T16:56:21.329Z,3.6,2026-09-29T16:56:21.330Z,2.7,-6,-10,-1001,0,-1,0,2026-09-29T16:56:21.327Z,5.7,2026-09-29T16:56:21.230Z,102.9,2026-09-29T16:56:21.325Z,7.5,1790700980685077.0,2233467.0,2026-09-29T16:56:20.632Z,700.2,,,,715,,,1,2026-09-29T16:56:21.328Z,5.1,15.166,0.01,58,30.0,0.0,0,1198627887,2026-09-29T16:56:21.228Z,104.5,5.231,0.014,1,2026-09-29T16:56:20.632Z,700.9,,,,,,,,,,,,,,,,,,,231,2167.18,2026-09-29T16:56:21.326Z,7.0,0,0,0,0,2026-09-29T16:56:21.326Z,6.3,1508,1514,1529,1493,255,2026-09-29T16:56:21.229Z,103.4,0.0,0.0,0.0,0.0,0.0,2026-09-29T16:56:21.229Z,103.9,2026-09-29T16:56:20.632Z,700.5,2026-09-29T16:56:21.236Z,96.8,2026-09-29T16:56:21.235Z,97.3,2026-09-29T16:56:21.235Z,97.8,2026-09-29T16:56:20.633Z,699.8
2026-09-29T16:56:21.380Z,2026-09-29T16:56:21.429Z,2026-09-29T10:56:21.429-06:00,1.6,32,True,STABILIZE,0,0,0.024064,0.703019,-128.480629,-0.022918,0.002865,-0.001146,39.0187742,-104.8936036,2167.18,-0.012,0.0,0.0,0.02,231.53,-0.011,0.0,39.0187742,-104.8936036,2165.87,0.01,203.19,32,6,0.68,1.23,0.005,0.025,-0.024,0,-0.02942,-0.08826,-9.796843,0.002,0.0,0.0,76,-152,140,15.166,0.01,1367,58,,1000,1000,1000,1000,0.022,0.022,0.023,0,0,0,831,0.0153,0.0027,0.0386,0.0121,784.846,46.22,-180.0,0.0,0.0,2026-09-29T16:56:21.374Z,0.003,6.864,0,541.6,0,0,0,0,2026-09-29T16:56:20.827Z,552.4,2026-09-29T16:56:21.376Z,3.6,2026-09-29T16:56:21.377Z,2.7,-6,-10,-1001,0,-1,0,2026-09-29T16:56:21.327Z,52.8,2026-09-29T16:56:21.230Z,150.0,2026-09-29T16:56:21.325Z,54.6,1790700980685077.0,2233467.0,2026-09-29T16:56:20.632Z,747.3,,,,715,,,1,2026-09-29T16:56:21.328Z,52.2,15.166,0.01,58,30.0,0.0,0,1198627887,2026-09-29T16:56:21.228Z,151.6,5.231,0.014,1,2026-09-29T16:56:20.632Z,748.0,,,,,,,,,,,,,,,,,,,231,2167.18,2026-09-29T16:56:21.326Z,54.1,0,0,0,0,2026-09-29T16:56:21.326Z,53.4,1508,1514,1529,1493,255,2026-09-29T16:56:21.229Z,150.5,0.0,0.0,0.0,0.0,0.0,2026-09-29T16:56:21.229Z,151.0,2026-09-29T16:56:20.632Z,747.6,2026-09-29T16:56:21.236Z,143.9,2026-09-29T16:56:21.235Z,144.4,2026-09-29T16:56:21.235Z,144.9,2026-09-29T16:56:20.633Z,746.9
2026-09-29T16:56:21.434Z,2026-09-29T16:56:21.483Z,2026-09-29T10:56:21.483-06:00,1.65,33,True,STABILIZE,0,0,0.024637,0.704165,-128.481775,0.001146,0.020054,0.018335,39.0187742,-104.8936036,2167.18,-0.019,0.0,0.0,0.02,231.52,-0.011,0.0,39.0187742,-104.8936036,2165.87,0.01,338.96,32,6,0.68,1.23,0.005,0.025,-0.025,0,-0.039227,-0.08826,-9.80665,0.002,0.0,0.0,76,-152,140,15.161,0.0,1367,58,,1000,1000,1000,1000,0.022,0.022,0.023,0,0,0,831,0.0153,0.0027,0.0386,0.0121,784.846,46.22,-180.0,0.0,0.0,2026-09-29T16:56:21.424Z,0.002,11.83,0,591.6,0,0,0,0,2026-09-29T16:56:20.827Z,607.4,2026-09-29T16:56:21.431Z,3.7,2026-09-29T16:56:21.432Z,2.8,-5,-10,-1002,0,0,0,2026-09-29T16:56:21.427Z,7.8,2026-09-29T16:56:21.430Z,5.0,2026-09-29T16:56:21.425Z,9.5,1790700980685077.0,2233467.0,2026-09-29T16:56:20.632Z,802.2,,,,715,,,1,2026-09-29T16:56:21.428Z,7.1,15.166,0.01,58,29.4,0.0,0,1198627887,2026-09-29T16:56:21.428Z,6.6,5.231,0.014,1,2026-09-29T16:56:20.632Z,802.9,,,,,,,,,,,,,,,,,,,231,2167.18,2026-09-29T16:56:21.426Z,9.0,0,0,0,0,2026-09-29T16:56:21.426Z,8.4,1508,1514,1529,1493,255,2026-09-29T16:56:21.429Z,5.5,0.0,0.0,0.0,0.0,0.0,2026-09-29T16:56:21.429Z,6.0,2026-09-29T16:56:20.632Z,802.6,2026-09-29T16:56:21.236Z,198.9,2026-09-29T16:56:21.235Z,199.3,2026-09-29T16:56:21.235Z,199.8,2026-09-29T16:56:20.633Z,801.9
2026-09-29T16:56:21.480Z,2026-09-29T16:56:21.529Z,2026-09-29T10:56:21.529-06:00,1.7,34,True,STABILIZE,0,0,0.024064,0.703592,-128.481775,-0.012032,-0.016043,0.061879,39.0187742,-104.8936036,2167.18,-0.019,0.0,0.0,0.02,231.52,-0.011,0.0,39.0187742,-104.8936036,2165.87,0.01,338.96,32,6,0.68,1.23,0.005,0.025,-0.025,0,-0.019613,-0.098066,-9.80665,0.002,0.001,0.0,76,-152,140,15.161,0.0,1367,58,,1000,1000,1000,1000,0.022,0.022,0.023,0,0,0,831,0.0153,0.0027,0.0386,0.0121,784.846,46.22,-180.0,0.0,0.0,2026-09-29T16:56:21.474Z,0.003,6.867,0,641.6,0,0,0,0,2026-09-29T16:56:20.827Z,652.4,2026-09-29T16:56:21.476Z,3.6,2026-09-29T16:56:21.477Z,2.7,-5,-10,-1002,0,0,0,2026-09-29T16:56:21.427Z,52.8,2026-09-29T16:56:21.430Z,50.1,2026-09-29T16:56:21.425Z,54.6,1790700980685077.0,2233467.0,2026-09-29T16:56:20.632Z,847.3,,,,715,,,1,2026-09-29T16:56:21.428Z,52.1,15.166,0.01,58,29.4,0.0,0,1198627887,2026-09-29T16:56:21.428Z,51.7,5.231,0.014,1,2026-09-29T16:56:20.632Z,848.0,,,,,,,,,,,,,,,,,,,231,2167.18,2026-09-29T16:56:21.426Z,54.1,0,0,0,0,2026-09-29T16:56:21.426Z,53.4,1508,1514,1529,1493,255,2026-09-29T16:56:21.429Z,50.6,0.0,0.0,0.0,0.0,0.0,2026-09-29T16:56:21.429Z,51.1,2026-09-29T16:56:20.632Z,847.6,2026-09-29T16:56:21.236Z,243.9,2026-09-29T16:56:21.235Z,244.4,2026-09-29T16:56:21.235Z,244.9,2026-09-29T16:56:20.633Z,846.9
2026-09-29T16:56:21.532Z,2026-09-29T16:56:21.581Z,2026-09-29T10:56:21.581-06:00,1.75,35,True,STABILIZE,0,0,0.02521,0.703592,-128.482348,0.016043,0.001719,0.059588,39.0187742,-104.8936036,2167.17,-0.025,0.0,0.0,0.02,231.52,-0.011,0.0,39.0187742,-104.8936036,2165.87,0.01,338.96,32,6,0.68,1.23,0.005,0.026,-0.026,0,-0.02942,-0.098066,-9.80665,0.002,0.0,0.0,76,-152,140,15.166,0.01,1367,58,,1000,1000,1000,1000,0.022,0.022,0.023,0,0,0,831,0.0153,0.0027,0.0386,0.0121,784.846,46.22,-180.0,0.0,0.0,2026-09-29T16:56:21.524Z,0.003,9.739,0,691.6,0,0,0,0,2026-09-29T16:56:20.827Z,705.3,2026-09-29T16:56:21.529Z,3.7,2026-09-29T16:56:21.530Z,2.8,-5,-10,-1002,0,-1,0,2026-09-29T16:56:21.527Z,5.7,2026-09-29T16:56:21.430Z,103.0,2026-09-29T16:56:21.525Z,7.5,1790700980685077.0,2233467.0,2026-09-29T16:56:20.632Z,900.2,,,,715,,,1,2026-09-29T16:56:21.528Z,5.1,15.166,0.01,58,29.4,0.0,0,1198627887,2026-09-29T16:56:21.428Z,104.6,5.231,0.014,1,2026-09-29T16:56:20.632Z,900.9,,,,,,,,,,,,,,,,,,,231,2167.17,2026-09-29T16:56:21.526Z,7.0,0,0,0,0,2026-09-29T16:56:21.526Z,6.3,1508,1514,1529,1493,255,2026-09-29T16:56:21.429Z,103.5,0.0,0.0,0.0,0.0,0.0,2026-09-29T16:56:21.429Z,104.0,2026-09-29T16:56:20.632Z,900.6,2026-09-29T16:56:21.236Z,296.9,2026-09-29T16:56:21.235Z,297.3,2026-09-29T16:56:21.235Z,297.8,2026-09-29T16:56:20.633Z,899.9
2026-09-29T16:56:21.581Z,2026-09-29T16:56:21.630Z,2026-09-29T10:56:21.630-06:00,1.8,36,True,STABILIZE,0,0,0.02521,0.703592,-128.484067,-0.013178,-0.008021,0.040107,39.0187742,-104.8936036,2167.17,-0.025,0.0,0.0,0.02,231.52,-0.011,0.0,39.0187742,-104.8936036,2165.87,0.01,338.96,32,6,0.68,1.23,0.005,0.026,-0.026,0,-0.02942,-0.098066,-9.80665,0.002,0.001,0.0,76,-152,140,15.166,0.01,1367,58,,1000,1000,1000,1000,0.022,0.022,0.023,0,0,0,831,0.0153,0.0027,0.0386,0.0121,784.846,46.22,-180.0,0.0,0.0,2026-09-29T16:56:21.574Z,0.003,7.965,0,741.6,1,0,209,3,2026-09-29T16:56:21.576Z,5.1,2026-09-29T16:56:21.577Z,3.7,2026-09-29T16:56:21.578Z,2.8,-5,-10,-1002,0,-1,0,2026-09-29T16:56:21.527Z,54.0,2026-09-29T16:56:21.430Z,151.2,2026-09-29T16:56:21.525Z,55.7,1790700980685077.0,2233467.0,2026-09-29T16:56:20.632Z,948.4,,,,715,,,1,2026-09-29T16:56:21.528Z,53.3,15.166,0.01,58,29.4,0.0,0,1198627887,2026-09-29T16:56:21.428Z,152.9,5.231,0.014,1,2026-09-29T16:56:20.632Z,949.1,,,,,,,,,,,,,,,,,,,231,2167.17,2026-09-29T16:56:21.526Z,55.2,0,0,0,0,2026-09-29T16:56:21.526Z,54.6,1508,1514,1529,1493,255,2026-09-29T16:56:21.429Z,151.7,0.0,0.0,0.0,0.0,0.0,2026-09-29T16:56:21.429Z,152.3,2026-09-29T16:56:20.632Z,948.8,2026-09-29T16:56:21.236Z,345.1,2026-09-29T16:56:21.235Z,345.6,2026-09-29T16:56:21.235Z,346.0,2026-09-29T16:56:20.633Z,948.1
2026-09-29T16:56:21.636Z,2026-09-29T16:56:21.685Z,2026-09-29T10:56:21.685-06:00,1.85,37,True,STABILIZE,0,0,0.025783,0.703019,-128.485213,-0.006303,-0.005157,-0.011459,39.0187742,-104.8936036,2167.16,-0.031,0.0,0.0,0.02,231.52,-0.011,0.0,39.0187742,-104.8936036,2165.86,0.03,348.36,32,6,0.68,1.23,0.005,0.027,-0.027,0,-0.019613,-0.098066,-9.80665,0.002,0.0,0.0,76,-152,140,15.168,0.0,1367,58,,1000,1000,1000,1000,0.022,0.022,0.023,0,0,0,831,0.0153,0.0027,0.0386,0.0121,784.846,46.22,-180.0,0.0,0.0,2026-09-29T16:56:21.624Z,0.003,13.691,0,791.6,1,0,209,3,2026-09-29T16:56:21.576Z,60.8,2026-09-29T16:56:21.631Z,5.6,2026-09-29T16:56:21.632Z,4.7,-6,-10,-1000,0,-1,0,2026-09-29T16:56:21.627Z,9.6,2026-09-29T16:56:21.630Z,6.9,2026-09-29T16:56:21.625Z,11.4,1790700981685047.0,2234467.0,2026-09-29T16:56:21.636Z,0.8,,,,715,,,1,2026-09-29T16:56:21.628Z,8.9,15.158,0.01,58,30.2,0.0,0,1198627887,2026-09-29T16:56:21.628Z,8.5,5.246,0.014,1,2026-09-29T16:56:21.635Z,1.8,,,,,,,,,,,,,,,,,,,231,2167.16,2026-09-29T16:56:21.626Z,10.9,0,0,0,0,2026-09-29T16:56:21.626Z,10.2,1508,1514,1529,1493,255,2026-09-29T16:56:21.629Z,7.4,0.0,0.0,0.0,0.0,0.0,2026-09-29T16:56:21.629Z,7.9,2026-09-29T16:56:21.635Z,1.3,2026-09-29T16:56:21.236Z,400.8,2026-09-29T16:56:21.235Z,401.3,2026-09-29T16:56:21.235Z,401.7,2026-09-29T16:56:21.636Z,0.4
2026-09-29T16:56:21.680Z,2026-09-29T16:56:21.729Z,2026-09-29T10:56:21.729-06:00,1.9,38,True,STABILIZE,0,0,0.026356,0.702446,-128.48464,0.006303,-0.017762,0.048128,39.0187742,-104.8936036,2167.16,-0.031,0.0,0.0,0.02,231.52,-0.011,0.0,39.0187742,-104.8936036,2165.86,0.03,348.36,32,6,0.68,1.23,0.005,0.027,-0.027,0,-0.02942,-0.08826,-9.816457,0.002,0.0,0.0,76,-152,140,15.168,0.0,1367,58,,1000,1000,1000,1000,0.022,0.022,0.023,0,0,0,831,0.0153,0.0027,0.0386,0.0121,784.846,46.22,-180.0,0.0,0.0,2026-09-29T16:56:21.674Z,0.003,6.898,0,841.6,1,0,209,3,2026-09-29T16:56:21.576Z,104.0,2026-09-29T16:56:21.676Z,3.7,2026-09-29T16:56:21.677Z,2.7,-6,-10,-1000,0,-1,0,2026-09-29T16:56:21.627Z,52.8,2026-09-29T16:56:21.630Z,50.1,2026-09-29T16:56:21.625Z,54.5,1790700981685047.0,2234467.0,2026-09-29T16:56:21.636Z,44.0,,,,715,,,1,2026-09-29T16:56:21.628Z,52.1,15.158,0.01,58,30.2,0.0,0,1198627887,2026-09-29T16:56:21.628Z,51.6,5.246,0.014,1,2026-09-29T16:56:21.635Z,44.9,,,,,,,,,,,,,,,,,,,231,2167.16,2026-09-29T16:56:21.626Z,54.0,0,0,0,0,2026-09-29T16:56:21.626Z,53.3,1508,1514,1529,1493,255,2026-09-29T16:56:21.629Z,50.6,0.0,0.0,0.0,0.0,0.0,2026-09-29T16:56:21.629Z,51.1,2026-09-29T16:56:21.635Z,44.5,2026-09-29T16:56:21.236Z,444.0,2026-09-29T16:56:21.235Z,444.4,2026-09-29T16:56:21.235Z,444.9,2026-09-29T16:56:21.636Z,43.5
2026-09-29T16:56:21.734Z,2026-09-29T16:56:21.783Z,2026-09-29T10:56:21.783-06:00,1.95,39,True,STABILIZE,0,0,0.026356,0.702446,-128.485213,-0.004011,-0.005157,0.018908,39.0187742,-104.8936036,2167.16,-0.038,0.0,0.0,0.02,231.52,-0.011,0.0,39.0187742,-104.8936036,2165.86,0.03,348.36,32,6,0.68,1.23,0.005,0.028,-0.027,0,-0.02942,-0.098066,-9.80665,0.002,0.001,0.0,76,-152,140,15.158,0.01,1367,58,,1000,1000,1000,1000,0.021,0.023,0.022,0,0,0,831,0.0121,0.0035,0.0074,0.0088,784.821,46.22,-180.0,0.0,0.0,2026-09-29T16:56:21.724Z,0.003,11.2,0,891.6,1,0,209,3,2026-09-29T16:56:21.576Z,158.3,2026-09-29T16:56:21.729Z,5.1,2026-09-29T16:56:21.730Z,4.2,-6,-11,-1002,0,0,0,2026-09-29T16:56:21.727Z,7.2,2026-09-29T16:56:21.630Z,104.5,2026-09-29T16:56:21.725Z,8.9,1790700981685047.0,2234467.0,2026-09-29T16:56:21.636Z,98.4,,,,715,,,1,2026-09-29T16:56:21.728Z,6.5,15.158,0.01,58,30.2,0.0,0,1198627887,2026-09-29T16:56:21.628Z,106.0,5.246,0.014,1,2026-09-29T16:56:21.635Z,99.3,,,,,,,,,,,,,,,,,,,231,2167.16,2026-09-29T16:56:21.726Z,8.4,0,0,0,0,2026-09-29T16:56:21.726Z,7.8,1508,1514,1529,1493,255,2026-09-29T16:56:21.629Z,105.0,0.0,0.0,0.0,0.0,0.0,2026-09-29T16:56:21.629Z,105.5,2026-09-29T16:56:21.635Z,98.8,2026-09-29T16:56:21.734Z,0.3,2026-09-29T16:56:21.733Z,0.8,2026-09-29T16:56:21.733Z,1.3,2026-09-29T16:56:21.636Z,97.9
2026-09-29T16:56:21.780Z,2026-09-29T16:56:21.829Z,2026-09-29T10:56:21.829-06:00,2.0,40,True,STABILIZE,0,0,0.026356,0.701873,-128.486359,-0.000573,-0.012032,0.00974,39.0187742,-104.8936036,2167.16,-0.038,0.0,0.0,0.02,231.52,-0.011,0.0,39.0187742,-104.8936036,2165.86,0.03,348.36,32,6,0.68,1.23,0.005,0.028,-0.027,0,-0.039227,-0.098066,-9.80665,0.002,0.001,0.0,76,-152,140,15.158,0.01,1367,58,,1000,1000,1000,1000,0.021,0.023,0.022,0,0,0,831,0.0121,0.0035,0.0074,0.0088,784.821,46.22,-180.0,0.0,0.0,2026-09-29T16:56:21.774Z,0.002,7.743,0,941.6,0,0,0,0,2026-09-29T16:56:21.776Z,5.0,2026-09-29T16:56:21.777Z,3.7,2026-09-29T16:56:21.778Z,2.8,-6,-11,-1002,0,0,0,2026-09-29T16:56:21.727Z,53.7,2026-09-29T16:56:21.630Z,151.0,2026-09-29T16:56:21.725Z,55.5,1790700981685047.0,2234467.0,2026-09-29T16:56:21.636Z,144.9,,,,715,,,1,2026-09-29T16:56:21.728Z,53.1,15.158,0.01,58,30.2,0.0,0,1198627887,2026-09-29T16:56:21.628Z,152.5,5.246,0.014,1,2026-09-29T16:56:21.635Z,145.8,,,,,,,,,,,,,,,,,,,231,2167.16,2026-09-29T16:56:21.726Z,55.0,0,0,0,0,2026-09-29T16:56:21.726Z,54.3,1508,1514,1529,1493,255,2026-09-29T16:56:21.629Z,151.5,0.0,0.0,0.0,0.0,0.0,2026-09-29T16:56:21.629Z,152.0,2026-09-29T16:56:21.635Z,145.4,2026-09-29T16:56:21.734Z,46.9,2026-09-29T16:56:21.733Z,47.3,2026-09-29T16:56:21.733Z,47.8,2026-09-29T16:56:21.636Z,144.5
2026-09-29T16:56:21.834Z,2026-09-29T16:56:21.883Z,2026-09-29T10:56:21.883-06:00,2.05,41,True,STABILIZE,0,0,0.026356,0.702446,-128.486359,-0.016043,0.004011,0.061306,39.0187742,-104.8936036,2167.15,-0.045,0.0,0.0,0.02,231.52,-0.011,0.0,39.0187742,-104.8936036,2165.87,0.01,166.75,32,6,0.68,1.23,0.005,0.029,-0.028,0,-0.02942,-0.08826,-9.816457,0.002,0.001,0.0,76,-152,140,15.174,0.0,1367,58,,1000,1000,1000,1000,0.021,0.023,0.022,0,0,0,831,0.0121,0.0035,0.0074,0.0088,784.821,46.22,-180.0,0.0,0.0,2026-09-29T16:56:21.824Z,0.002,11.709,0,991.6,0,0,0,0,2026-09-29T16:56:21.776Z,59.0,2026-09-29T16:56:21.831Z,3.7,2026-09-29T16:56:21.832Z,2.8,-6,-10,-1001,0,-1,-1,2026-09-29T16:56:21.827Z,7.7,2026-09-29T16:56:21.830Z,5.1,2026-09-29T16:56:21.825Z,9.5,1790700981685047.0,2234467.0,2026-09-29T16:56:21.636Z,198.9,,,,715,,,1,2026-09-29T16:56:21.828Z,7.1,15.179,0.01,58,29.8,0.0,0,1198627887,2026-09-29T16:56:21.828Z,6.6,5.246,0.014,1,2026-09-29T16:56:21.635Z,199.8,,,,,,,,,,,,,,,,,,,231,2167.15,2026-09-29T16:56:21.826Z,9.0,0,0,0,0,2026-09-29T16:56:21.826Z,8.3,1508,1514,1529,1493,255,2026-09-29T16:56:21.829Z,5.6,0.0,0.0,0.0,0.0,0.0,2026-09-29T16:56:21.828Z,6.1,2026-09-29T16:56:21.635Z,199.3,2026-09-29T16:56:21.734Z,100.8,2026-09-29T16:56:21.733Z,101.3,2026-09-29T16:56:21.733Z,101.8,2026-09-29T16:56:21.636Z,198.4
2026-09-29T16:56:21.881Z,2026-09-29T16:56:21.930Z,2026-09-29T10:56:21.930-06:00,2.1,42,True,STABILIZE,0,0,0.026929,0.701873,-128.486931,0.00573,-0.012032,0.014324,39.0187742,-104.8936036,2167.15,-0.045,0.0,0.0,0.02,231.52,-0.011,0.0,39.0187742,-104.8936036,2165.87,0.01,166.75,32,6,0.68,1.23,0.005,0.029,-0.028,0,-0.019613,-0.08826,-9.816457,0.002,0.0,0.0,76,-152,140,15.174,0.0,1367,58,,1000,1000,1000,1000,0.021,0.023,0.022,0,0,0,831,0.0121,0.0035,0.0074,0.0088,784.821,46.22,-180.0,0.0,0.0,2026-09-29T16:56:21.874Z,0.003,8.047,0,-6.3,0,0,0,0,2026-09-29T16:56:21.776Z,105.3,2026-09-29T16:56:21.876Z,4.8,2026-09-29T16:56:21.877Z,3.9,-6,-10,-1001,0,-1,-1,2026-09-29T16:56:21.827Z,54.1,2026-09-29T16:56:21.830Z,51.4,2026-09-29T16:56:21.825Z,55.8,1790700981685047.0,2234467.0,2026-09-29T16:56:21.636Z,245.2,,,,715,,,1,2026-09-29T16:56:21.828Z,53.4,15.179,0.01,58,29.8,0.0,0,1198627887,2026-09-29T16:56:21.828Z,52.9,5.246,0.014,1,2026-09-29T16:56:21.635Z,246.1,,,,,,,,,,,,,,,,,,,231,2167.15,2026-09-29T16:56:21.826Z,55.3,0,0,0,0,2026-09-29T16:56:21.826Z,54.6,1508,1514,1529,1493,255,2026-09-29T16:56:21.829Z,51.9,0.0,0.0,0.0,0.0,0.0,2026-09-29T16:56:21.828Z,52.4,2026-09-29T16:56:21.635Z,245.7,2026-09-29T16:56:21.734Z,147.2,2026-09-29T16:56:21.733Z,147.6,2026-09-29T16:56:21.733Z,148.1,2026-09-29T16:56:21.636Z,244.8
2026-09-29T16:56:21.933Z,2026-09-29T16:56:21.982Z,2026-09-29T10:56:21.982-06:00,2.15,43,True,STABILIZE,0,0,0.026356,0.700727,-128.486359,-0.0,-0.00974,0.046983,39.0187742,-104.8936036,2167.15,-0.049,0.0,0.0,0.02,231.52,-0.011,0.0,39.0187742,-104.8936036,2165.87,0.01,166.75,32,6,0.68,1.23,0.005,0.03,-0.029,0,-0.02942,-0.098066,-9.816457,0.002,0.001,0.0,76,-152,140,15.179,0.01,1367,58,,1000,1000,1000,1000,0.021,0.023,0.022,0,0,0,831,0.0121,0.0035,0.0074,0.0088,784.821,46.22,-180.0,0.0,0.0,2026-09-29T16:56:21.924Z,0.003,9.877,0,43.7,0,0,0,0,2026-09-29T16:56:21.776Z,157.2,2026-09-29T16:56:21.929Z,3.7,2026-09-29T16:56:21.930Z,2.8,-5,-10,-1001,0,-1,0,2026-09-29T16:56:21.927Z,5.8,2026-09-29T16:56:21.830Z,103.2,2026-09-29T16:56:21.925Z,7.6,1790700981685047.0,2234467.0,2026-09-29T16:56:21.636Z,297.1,,,,715,,,1,2026-09-29T16:56:21.928Z,5.1,15.179,0.01,58,29.8,0.0,0,1198627887,2026-09-29T16:56:21.828Z,104.8,5.246,0.014,1,2026-09-29T16:56:21.635Z,298.0,,,,,,,,,,,,,,,,,,,231,2167.15,2026-09-29T16:56:21.926Z,7.1,0,0,0,0,2026-09-29T16:56:21.926Z,6.4,1508,1514,1529,1493,255,2026-09-29T16:56:21.829Z,103.7,0.0,0.0,0.0,0.0,0.0,2026-09-29T16:56:21.828Z,104.3,2026-09-29T16:56:21.635Z,297.5,2026-09-29T16:56:21.734Z,199.0,2026-09-29T16:56:21.733Z,199.5,2026-09-29T16:56:21.733Z,199.9,2026-09-29T16:56:21.636Z,296.6
2026-09-29T16:56:21.980Z,2026-09-29T16:56:22.029Z,2026-09-29T10:56:22.029-06:00,2.2,44,True,STABILIZE,0,0,0.026929,0.702446,-128.486931,0.00573,0.065317,0.046983,39.0187742,-104.8936036,2167.15,-0.049,0.0,0.0,0.02,231.52,-0.011,0.0,39.0187742,-104.8936036,2165.87,0.01,166.75,32,6,0.68,1.23,0.005,0.03,-0.029,0,-0.02942,-0.098066,-9.80665,0.002,0.001,0.0,76,-152,140,15.179,0.01,1367,58,,1000,1000,1000,1000,0.021,0.023,0.022,0,0,0,831,0.0121,0.0035,0.0074,0.0088,784.821,46.22,-180.0,0.0,0.0,2026-09-29T16:56:21.974Z,0.003,6.857,0,93.7,0,0,0,0,2026-09-29T16:56:21.776Z,204.1,2026-09-29T16:56:21.976Z,3.7,2026-09-29T16:56:21.977Z,2.7,-5,-10,-1001,0,-1,0,2026-09-29T16:56:21.927Z,52.7,2026-09-29T16:56:21.830Z,150.2,2026-09-29T16:56:21.925Z,54.5,1790700981685047.0,2234467.0,2026-09-29T16:56:21.636Z,344.0,,,,715,,,1,2026-09-29T16:56:21.928Z,52.0,15.179,0.01,58,29.8,0.0,0,1198627887,2026-09-29T16:56:21.828Z,151.7,5.246,0.014,1,2026-09-29T16:56:21.635Z,344.9,,,,,,,,,,,,,,,,,,,231,2167.15,2026-09-29T16:56:21.926Z,54.0,0,0,0,0,2026-09-29T16:56:21.926Z,53.3,1508,1514,1529,1493,255,2026-09-29T16:56:21.829Z,150.7,0.0,0.0,0.0,0.0,0.0,2026-09-29T16:56:21.828Z,151.2,2026-09-29T16:56:21.635Z,344.4,2026-09-29T16:56:21.734Z,245.9,2026-09-29T16:56:21.733Z,246.4,2026-09-29T16:56:21.733Z,246.9,2026-09-29T16:56:21.636Z,343.5
2026-09-29T16:56:22.034Z,2026-09-29T16:56:22.083Z,2026-09-29T10:56:22.083-06:00,2.25,45,True,STABILIZE,0,0,0.026929,0.702446,-128.486931,0.00974,-0.016616,0.049847,39.0187742,-104.8936036,2167.14,-0.052,0.0,0.0,0.02,231.52,-0.011,0.0,39.0187742,-104.8936036,2165.87,0.01,330.94,32,6,0.68,1.23,0.005,0.03,-0.03,0,-0.039227,-0.08826,-9.80665,0.002,0.0,0.0,76,-152,140,15.177,0.01,1367,58,,1000,1000,1000,1000,0.021,0.023,0.022,0,0,0,831,0.0121,0.0035,0.0074,0.0088,784.821,46.22,-180.0,0.0,0.0,2026-09-29T16:56:22.024Z,0.002,11.682,0,143.7,0,0,0,0,2026-09-29T16:56:21.776Z,259.0,2026-09-29T16:56:22.031Z,3.7,2026-09-29T16:56:22.032Z,2.8,-6,-10,-1001,0,0,0,2026-09-29T16:56:22.027Z,7.7,2026-09-29T16:56:22.029Z,5.0,2026-09-29T16:56:22.025Z,9.4,1790700981685047.0,2234467.0,2026-09-29T16:56:21.636Z,398.8,,,,715,,,1,2026-09-29T16:56:22.028Z,7.0,15.185,0.01,58,29.6,0.0,0,1198627887,2026-09-29T16:56:22.028Z,6.6,5.246,0.014,1,2026-09-29T16:56:21.635Z,399.8,,,,,,,,,,,,,,,,,,,231,2167.14,2026-09-29T16:56:22.026Z,8.9,0,0,0,0,2026-09-29T16:56:22.026Z,8.3,1508,1514,1529,1493,255,2026-09-29T16:56:22.029Z,5.5,0.0,0.0,0.0,0.0,0.0,2026-09-29T16:56:22.028Z,6.0,2026-09-29T16:56:21.635Z,399.3,2026-09-29T16:56:21.734Z,300.8,2026-09-29T16:56:21.733Z,301.3,2026-09-29T16:56:21.733Z,301.7,2026-09-29T16:56:21.636Z,398.4
2026-09-29T16:56:22.080Z,2026-09-29T16:56:22.129Z,2026-09-29T10:56:22.129-06:00,2.3,46,True,STABILIZE,0,0,0.026356,0.702446,-128.488077,-0.01547,-0.00573,0.024064,39.0187742,-104.8936036,2167.14,-0.052,0.0,0.0,0.02,231.52,-0.011,0.0,39.0187742,-104.8936036,2165.87,0.01,330.94,32,6,0.68,1.23,0.005,0.03,-0.03,0,-0.02942,-0.098066,-9.80665,0.002,0.0,0.0,76,-152,140,15.177,0.01,1367,58,,1000,1000,1000,1000,0.021,0.023,0.022,0,0,0,831,0.0121,0.0035,0.0074,0.0088,784.821,46.22,-180.0,0.0,0.0,2026-09-29T16:56:22.074Z,0.003,6.901,0,193.7,0,0,0,0,2026-09-29T16:56:21.776Z,304.1,2026-09-29T16:56:22.076Z,3.7,2026-09-29T16:56:22.077Z,2.7,-6,-10,-1001,0,0,0,2026-09-29T16:56:22.027Z,52.9,2026-09-29T16:56:22.029Z,50.2,2026-09-29T16:56:22.025Z,54.6,1790700981685047.0,2234467.0,2026-09-29T16:56:21.636Z,444.0,,,,715,,,1,2026-09-29T16:56:22.028Z,52.2,15.185,0.01,58,29.6,0.0,0,1198627887,2026-09-29T16:56:22.028Z,51.7,5.246,0.014,1,2026-09-29T16:56:21.635Z,444.9,,,,,,,,,,,,,,,,,,,231,2167.14,2026-09-29T16:56:22.026Z,54.1,0,0,0,0,2026-09-29T16:56:22.026Z,53.4,1508,1514,1529,1493,255,2026-09-29T16:56:22.029Z,50.7,0.0,0.0,0.0,0.0,0.0,2026-09-29T16:56:22.028Z,51.2,2026-09-29T16:56:21.635Z,444.5,2026-09-29T16:56:21.734Z,346.0,2026-09-29T16:56:21.733Z,346.4,2026-09-29T16:56:21.733Z,346.9,2026-09-29T16:56:21.636Z,443.6
2026-09-29T16:56:22.132Z,2026-09-29T16:56:22.181Z,2026-09-29T10:56:22.181-06:00,2.35,47,True,STABILIZE,0,0,0.025783,0.702446,-128.489223,-0.014324,-0.004011,0.045837,39.0187742,-104.8936036,2167.14,-0.056,0.0,0.0,0.02,231.52,-0.011,0.0,39.0187742,-104.8936036,2165.87,0.01,330.94,32,6,0.68,1.23,0.005,0.03,-0.03,0,-0.019613,-0.098066,-9.80665,0.002,0.001,0.0,76,-152,140,15.185,0.01,1367,58,,1000,1000,1000,1000,0.021,0.023,0.022,0,0,0,831,0.0121,0.0035,0.0074,0.0088,784.821,46.22,-180.0,0.0,0.0,2026-09-29T16:56:22.124Z,0.002,9.789,0,243.7,0,0,0,0,2026-09-29T16:56:21.776Z,357.1,2026-09-29T16:56:22.129Z,3.7,2026-09-29T16:56:22.130Z,2.8,-5,-9,-1002,0,0,-1,2026-09-29T16:56:22.127Z,5.8,2026-09-29T16:56:22.029Z,103.1,2026-09-29T16:56:22.125Z,7.5,1790700981685047.0,2234467.0,2026-09-29T16:56:21.636Z,496.9,,,,715,,,1,2026-09-29T16:56:22.128Z,5.1,15.185,0.01,58,29.6,0.0,0,1198627887,2026-09-29T16:56:22.028Z,104.7,5.246,0.014,1,2026-09-29T16:56:21.635Z,497.9,,,,,,,,,,,,,,,,,,,231,2167.14,2026-09-29T16:56:22.126Z,7.0,0,0,0,0,2026-09-29T16:56:22.126Z,6.4,1508,1514,1529,1493,255,2026-09-29T16:56:22.029Z,103.6,0.0,0.0,0.0,0.0,0.0,2026-09-29T16:56:22.028Z,104.1,2026-09-29T16:56:21.635Z,497.4,2026-09-29T16:56:21.734Z,398.9,2026-09-29T16:56:21.733Z,399.4,2026-09-29T16:56:21.733Z,399.8,2026-09-29T16:56:21.636Z,496.5
2026-09-29T16:56:22.180Z,2026-09-29T16:56:22.229Z,2026-09-29T10:56:22.229-06:00,2.4,48,True,STABILIZE,0,0,0.025783,0.703019,-128.48865,-0.012032,0.005157,0.037242,39.0187742,-104.8936036,2167.14,-0.056,0.0,0.0,0.02,231.52,-0.011,0.0,39.0187742,-104.8936036,2165.87,0.01,330.94,32,6,0.68,1.23,0.005,0.03,-0.03,0,-0.02942,-0.08826,-9.796843,0.002,0.001,0.0,76,-152,140,15.185,0.01,1367,58,,1000,1000,1000,1000,0.021,0.023,0.022,0,0,0,831,0.0121,0.0035,0.0074,0.0088,784.821,46.22,-180.0,0.0,0.0,2026-09-29T16:56:22.174Z,0.003,6.906,0,293.7,0,0,0,0,2026-09-29T16:56:21.776Z,404.1,2026-09-29T16:56:22.176Z,3.7,2026-09-29T16:56:22.177Z,2.7,-5,-9,-1002,0,0,-1,2026-09-29T16:56:22.127Z,52.8,2026-09-29T16:56:22.029Z,150.2,2026-09-29T16:56:22.125Z,54.6,1790700981685047.0,2234467.0,2026-09-29T16:56:21.636Z,544.0,,,,715,,,1,2026-09-29T16:56:22.128Z,52.2,15.185,0.01,58,29.6,0.0,0,1198627887,2026-09-29T16:56:22.028Z,151.7,5.246,0.014,1,2026-09-29T16:56:21.635Z,544.9,,,,,,,,,,,,,,,,,,,231,2167.14,2026-09-29T16:56:22.126Z,54.1,0,0,0,0,2026-09-29T16:56:22.126Z,53.4,1508,1514,1529,1493,255,2026-09-29T16:56:22.029Z,150.7,0.0,0.0,0.0,0.0,0.0,2026-09-29T16:56:22.028Z,151.2,2026-09-29T16:56:21.635Z,544.5,2026-09-29T16:56:21.734Z,446.0,2026-09-29T16:56:21.733Z,446.4,2026-09-29T16:56:21.733Z,446.9,2026-09-29T16:56:21.636Z,543.5
2026-09-29T16:56:22.236Z,2026-09-29T16:56:22.285Z,2026-09-29T10:56:22.285-06:00,2.45,49,True,STABILIZE,0,0,0.026356,0.703592,-128.48865,0.00573,0.011459,0.036096,39.0187742,-104.8936036,2167.13,-0.06,0.0,0.0,0.02,231.52,-0.011,0.0,39.0187742,-104.8936036,2165.87,0.01,333.43,32,6,0.68,1.23,0.005,0.03,-0.03,0,-0.009807,-0.098066,-9.80665,0.002,0.001,0.0,76,-152,140,15.177,0.0,1367,58,,1000,1000,1000,1000,0.02,0.022,0.025,0,0,0,831,0.0128,0.0028,0.0168,0.0029,784.817,46.21,-180.0,0.0,0.0,2026-09-29T16:56:22.224Z,0.002,13.242,0,343.7,0,0,0,0,2026-09-29T16:56:21.776Z,460.4,2026-09-29T16:56:22.231Z,5.1,2026-09-29T16:56:22.232Z,4.2,-5,-10,-1001,1,0,-1,2026-09-29T16:56:22.227Z,9.1,2026-09-29T16:56:22.230Z,6.5,2026-09-29T16:56:22.225Z,10.9,1790700981685047.0,2234467.0,2026-09-29T16:56:21.636Z,600.3,,,,715,,,1,2026-09-29T16:56:22.228Z,8.4,15.171,0.01,58,29.8,0.0,0,1198627887,2026-09-29T16:56:22.228Z,8.0,5.246,0.014,1,2026-09-29T16:56:21.635Z,601.2,,,,,,,,,,,,,,,,,,,231,2167.13,2026-09-29T16:56:22.226Z,10.4,0,0,0,0,2026-09-29T16:56:22.226Z,9.7,1508,1514,1529,1493,255,2026-09-29T16:56:22.229Z,7.0,0.0,0.0,0.0,0.0,0.0,2026-09-29T16:56:22.229Z,7.5,2026-09-29T16:56:21.635Z,600.8,2026-09-29T16:56:22.236Z,0.3,2026-09-29T16:56:22.235Z,0.8,2026-09-29T16:56:22.235Z,1.3,2026-09-29T16:56:21.636Z,599.9
2026-09-29T16:56:22.280Z,2026-09-29T16:56:22.329Z,2026-09-29T10:56:22.329-06:00,2.5,50,True,STABILIZE,0,0,0.025783,0.703019,-128.489796,-0.031513,0.000573,0.029794,39.0187742,-104.8936036,2167.13,-0.06,0.0,0.0,0.02,231.52,-0.011,0.0,39.0187742,-104.8936036,2165.87,0.01,333.43,32,6,0.68,1.23,0.005,0.03,-0.03,0,-0.019613,-0.08826,-9.80665,0.002,0.0,0.0,76,-152,140,15.177,0.0,1367,58,,1000,1000,1000,1000,0.02,0.022,0.025,0,0,0,831,0.0128,0.0028,0.0168,0.0029,784.817,46.21,-180.0,0.0,0.0,2026-09-29T16:56:22.274Z,0.003,7.543,0,393.7,0,0,0,0,2026-09-29T16:56:21.776Z,504.8,2026-09-29T16:56:22.277Z,3.7,2026-09-29T16:56:22.278Z,2.8,-5,-10,-1001,1,0,-1,2026-09-29T16:56:22.227Z,53.5,2026-09-29T16:56:22.230Z,50.9,2026-09-29T16:56:22.225Z,55.3,1790700981685047.0,2234467.0,2026-09-29T16:56:21.636Z,644.7,,,,715,,,1,2026-09-29T16:56:22.228Z,52.8,15.171,0.01,58,29.8,0.0,0,1198627887,2026-09-29T16:56:22.228Z,52.4,5.246,0.014,1,2026-09-29T16:56:21.635Z,645.6,,,,,,,,,,,,,,,,,,,231,2167.13,2026-09-29T16:56:22.226Z,54.8,0,0,0,0,2026-09-29T16:56:22.226Z,54.1,1508,1514,1529,1493,255,2026-09-29T16:56:22.229Z,51.3,0.0,0.0,0.0,0.0,0.0,2026-09-29T16:56:22.229Z,51.9,2026-09-29T16:56:21.635Z,645.2,2026-09-29T16:56:22.236Z,44.7,2026-09-29T16:56:22.235Z,45.2,2026-09-29T16:56:22.235Z,45.7,2026-09-29T16:56:21.636Z,644.3
2026-09-29T16:56:22.333Z,2026-09-29T16:56:22.382Z,2026-09-29T10:56:22.382-06:00,2.55,51,True,STABILIZE,0,0,0.026356,0.703019,-128.490942,0.00573,0.03094,-0.004584,39.0187742,-104.8936036,2167.13,-0.064,0.0,0.0,0.02,231.51,-0.011,0.0,39.0187742,-104.8936036,2165.87,0.01,333.43,32,6,0.68,1.23,0.005,0.03,-0.03,0,-0.039227,-0.098066,-9.80665,0.002,0.001,0.0,76,-152,140,15.171,0.01,1367,58,,1000,1000,1000,1000,0.02,0.022,0.025,0,0,0,831,0.0128,0.0028,0.0168,0.0029,784.817,46.21,-180.0,0.0,0.0,2026-09-29T16:56:22.324Z,0.003,9.855,0,443.7,0,0,0,0,2026-09-29T16:56:21.776Z,557.1,2026-09-29T16:56:22.329Z,3.7,2026-09-29T16:56:22.330Z,2.8,-7,-9,-1002,0,-1,0,2026-09-29T16:56:22.327Z,5.9,2026-09-29T16:56:22.230Z,103.1,2026-09-29T16:56:22.325Z,7.6,1790700981685047.0,2234467.0,2026-09-29T16:56:21.636Z,697.0,,,,715,,,1,2026-09-29T16:56:22.328Z,5.1,15.171,0.01,58,29.8,0.0,0,1198627887,2026-09-29T16:56:22.228Z,104.7,5.246,0.014,1,2026-09-29T16:56:21.635Z,697.9,,,,,,,,,,,,,,,,,,,231,2167.13,2026-09-29T16:56:22.326Z,7.1,0,0,0,0,2026-09-29T16:56:22.326Z,6.4,1508,1514,1529,1493,255,2026-09-29T16:56:22.229Z,103.6,0.0,0.0,0.0,0.0,0.0,2026-09-29T16:56:22.229Z,104.2,2026-09-29T16:56:21.635Z,697.5,2026-09-29T16:56:22.236Z,97.0,2026-09-29T16:56:22.235Z,97.5,2026-09-29T16:56:22.235Z,97.9,2026-09-29T16:56:21.636Z,696.6
2026-09-29T16:56:22.380Z,2026-09-29T16:56:22.429Z,2026-09-29T10:56:22.429-06:00,2.6,52,True,STABILIZE,0,0,0.025783,0.701873,-128.490942,-0.014897,-0.026356,0.023491,39.0187742,-104.8936036,2167.13,-0.064,0.0,0.0,0.02,231.51,-0.011,0.0,39.0187742,-104.8936036,2165.87,0.01,333.43,32,6,0.68,1.23,0.005,0.03,-0.03,0,-0.02942,-0.098066,-9.796843,0.002,0.001,0.0,76,-152,140,15.171,0.01,1367,58,,1000,1000,1000,1000,0.02,0.022,0.025,0,0,0,831,0.0128,0.0028,0.0168,0.0029,784.817,46.21,-180.0,0.0,0.0,2026-09-29T16:56:22.374Z,0.003,6.855,0,493.7,0,0,0,0,2026-09-29T16:56:21.776Z,604.1,2026-09-29T16:56:22.376Z,3.7,2026-09-29T16:56:22.377Z,2.7,-7,-9,-1002,0,-1,0,2026-09-29T16:56:22.327Z,52.8,2026-09-29T16:56:22.230Z,150.1,2026-09-29T16:56:22.325Z,54.6,1790700981685047.0,2234467.0,2026-09-29T16:56:21.636Z,744.0,,,,715,,,1,2026-09-29T16:56:22.328Z,52.1,15.171,0.01,58,29.8,0.0,0,1198627887,2026-09-29T16:56:22.228Z,151.6,5.246,0.014,1,2026-09-29T16:56:21.635Z,744.9,,,,,,,,,,,,,,,,,,,231,2167.13,2026-09-29T16:56:22.326Z,54.1,0,0,0,0,2026-09-29T16:56:22.326Z,53.4,1508,1514,1529,1493,255,2026-09-29T16:56:22.229Z,150.6,0.0,0.0,0.0,0.0,0.0,2026-09-29T16:56:22.229Z,151.1,2026-09-29T16:56:21.635Z,744.4,2026-09-29T16:56:22.236Z,144.0,2026-09-29T16:56:22.235Z,144.4,2026-09-29T16:56:22.235Z,144.9,2026-09-29T16:56:21.636Z,743.5
2026-09-29T16:56:22.437Z,2026-09-29T16:56:22.486Z,2026-09-29T10:56:22.486-06:00,2.65,53,True,STABILIZE,0,0,0.02521,0.7013,-128.492661,-0.033232,-0.013178,-0.00573,39.0187743,-104.8936036,2167.13,-0.066,0.0,0.0,0.02,231.51,0.0,0.0,39.0187742,-104.8936036,2165.87,0.01,337.38,32,6,0.68,1.23,0.005,0.03,-0.03,0,-0.019613,-0.08826,-9.80665,0.002,0.001,0.0,76,-152,140,15.176,0.0,1367,58,,1000,1000,1000,1000,0.02,0.022,0.025,0,0,0,831,0.0128,0.0028,0.0168,0.0029,784.817,46.21,-180.0,0.0,0.0,2026-09-29T16:56:22.424Z,0.003,13.855,0,543.7,0,0,0,0,2026-09-29T16:56:21.776Z,661.1,2026-09-29T16:56:22.432Z,5.1,2026-09-29T16:56:22.433Z,4.2,-6,-10,-1001,0,-1,0,2026-09-29T16:56:22.427Z,9.8,2026-09-29T16:56:22.430Z,6.5,2026-09-29T16:56:22.425Z,11.6,1790700981685047.0,2234467.0,2026-09-29T16:56:21.636Z,801.0,,,,715,,,1,2026-09-29T16:56:22.428Z,9.2,15.18,0.01,58,30.4,0.0,0,1198627887,2026-09-29T16:56:22.429Z,7.9,5.246,0.014,1,2026-09-29T16:56:21.635Z,801.9,,,,,,,,,,,,,,,,,,,231,2167.13,2026-09-29T16:56:22.426Z,11.1,0,0,0,0,2026-09-29T16:56:22.426Z,10.4,1508,1514,1529,1493,255,2026-09-29T16:56:22.430Z,7.0,0.0,0.0,0.0,0.0,0.0,2026-09-29T16:56:22.429Z,7.5,2026-09-29T16:56:21.635Z,801.5,2026-09-29T16:56:22.236Z,201.0,2026-09-29T16:56:22.235Z,201.5,2026-09-29T16:56:22.235Z,201.9,2026-09-29T16:56:21.636Z,800.5
2026-09-29T16:56:22.480Z,2026-09-29T16:56:22.529Z,2026-09-29T10:56:22.529-06:00,2.7,54,True,STABILIZE,0,0,0.02521,0.700727,-128.492661,0.013751,-0.018335,0.057869,39.0187743,-104.8936036,2167.13,-0.066,0.0,0.0,0.02,231.51,0.0,0.0,39.0187742,-104.8936036,2165.87,0.01,337.38,32,6,0.68,1.23,0.005,0.03,-0.03,0,-0.02942,-0.107873,-9.80665,0.002,0.001,0.0,76,-152,140,15.176,0.0,1367,58,,1000,1000,1000,1000,0.02,0.022,0.025,0,0,0,831,0.0128,0.0028,0.0168,0.0029,784.817,46.21,-180.0,0.0,0.0,2026-09-29T16:56:22.474Z,0.003,6.942,0,593.7,0,0,0,0,2026-09-29T16:56:21.776Z,704.2,2026-09-29T16:56:22.476Z,3.7,2026-09-29T16:56:22.477Z,2.7,-6,-10,-1001,0,-1,0,2026-09-29T16:56:22.427Z,52.9,2026-09-29T16:56:22.430Z,49.5,2026-09-29T16:56:22.425Z,54.6,1790700981685047.0,2234467.0,2026-09-29T16:56:21.636Z,844.0,,,,715,,,1,2026-09-29T16:56:22.428Z,52.2,15.18,0.01,58,30.4,0.0,0,1198627887,2026-09-29T16:56:22.429Z,51.0,5.246,0.014,1,2026-09-29T16:56:21.635Z,845.0,,,,,,,,,,,,,,,,,,,231,2167.13,2026-09-29T16:56:22.426Z,54.1,0,0,0,0,2026-09-29T16:56:22.426Z,53.5,1508,1514,1529,1493,255,2026-09-29T16:56:22.430Z,50.0,0.0,0.0,0.0,0.0,0.0,2026-09-29T16:56:22.429Z,50.5,2026-09-29T16:56:21.635Z,844.5,2026-09-29T16:56:22.236Z,244.1,2026-09-29T16:56:22.235Z,244.5,2026-09-29T16:56:22.235Z,245.0,2026-09-29T16:56:21.636Z,843.6
2026-09-29T16:56:22.533Z,2026-09-29T16:56:22.582Z,2026-09-29T10:56:22.582-06:00,2.75,55,True,STABILIZE,0,0,0.024637,0.701873,-128.493234,-0.034377,0.008021,0.026356,39.0187743,-104.8936036,2167.13,-0.066,0.0,0.0,0.02,231.51,0.0,0.0,39.0187742,-104.8936036,2165.87,0.01,337.38,32,6,0.68,1.23,0.005,0.03,-0.029,0,-0.02942,-0.098066,-9.80665,0.002,0.0,0.0,76,-152,140,15.18,0.01,1367,58,,1000,1000,1000,1000,0.02,0.022,0.025,0,0,0,831,0.0128,0.0028,0.0168,0.0029,784.817,46.21,-180.0,0.0,0.0,2026-09-29T16:56:22.524Z,0.003,10.517,0,643.7,0,0,0,0,2026-09-29T16:56:21.776Z,757.8,2026-09-29T16:56:22.530Z,3.7,2026-09-29T16:56:22.531Z,2.8,-6,-10,-1002,0,0,0,2026-09-29T16:56:22.527Z,6.3,2026-09-29T16:56:22.430Z,103.2,2026-09-29T16:56:22.525Z,8.1,1790700981685047.0,2234467.0,2026-09-29T16:56:21.636Z,897.7,,,,715,,,1,2026-09-29T16:56:22.528Z,5.7,15.18,0.01,58,30.4,0.0,0,1198627887,2026-09-29T16:56:22.429Z,104.6,5.246,0.014,1,2026-09-29T16:56:21.635Z,898.6,,,,,,,,,,,,,,,,,,,231,2167.13,2026-09-29T16:56:22.526Z,7.6,0,0,0,0,2026-09-29T16:56:22.526Z,6.9,1508,1514,1529,1493,255,2026-09-29T16:56:22.430Z,103.7,0.0,0.0,0.0,0.0,0.0,2026-09-29T16:56:22.429Z,104.2,2026-09-29T16:56:21.635Z,898.1,2026-09-29T16:56:22.236Z,297.7,2026-09-29T16:56:22.235Z,298.2,2026-09-29T16:56:22.235Z,298.6,2026-09-29T16:56:21.636Z,897.2
2026-09-29T16:56:22.581Z,2026-09-29T16:56:22.630Z,2026-09-29T10:56:22.630-06:00,2.8,56,True,STABILIZE,0,0,0.024064,0.7013,-128.493807,0.008594,-0.010886,0.021772,39.0187743,-104.8936036,2167.13,-0.066,0.0,0.0,0.02,231.51,0.0,0.0,39.0187742,-104.8936036,2165.87,0.01,337.38,32,6,0.68,1.23,0.005,0.03,-0.029,0,-0.02942,-0.098066,-9.816457,0.002,0.001,0.0,76,-152,140,15.18,0.01,1367,58,,1000,1000,1000,1000,0.02,0.022,0.025,0,0,0,831,0.0128,0.0028,0.0168,0.0029,784.817,46.21,-180.0,0.0,0.0,2026-09-29T16:56:22.574Z,0.002,7.812,0,693.7,1,0,209,3,2026-09-29T16:56:22.576Z,5.0,2026-09-29T16:56:22.577Z,3.7,2026-09-29T16:56:22.578Z,2.8,-6,-10,-1002,0,0,0,2026-09-29T16:56:22.527Z,53.6,2026-09-29T16:56:22.430Z,150.5,2026-09-29T16:56:22.525Z,55.4,1790700981685047.0,2234467.0,2026-09-29T16:56:21.636Z,945.0,,,,715,,,1,2026-09-29T16:56:22.528Z,53.0,15.18,0.01,58,30.4,0.0,0,1198627887,2026-09-29T16:56:22.429Z,151.9,5.246,0.014,1,2026-09-29T16:56:21.635Z,945.9,,,,,,,,,,,,,,,,,,,231,2167.13,2026-09-29T16:56:22.526Z,54.9,0,0,0,0,2026-09-29T16:56:22.526Z,54.2,1508,1514,1529,1493,255,2026-09-29T16:56:22.430Z,151.0,0.0,0.0,0.0,0.0,0.0,2026-09-29T16:56:22.429Z,151.5,2026-09-29T16:56:21.635Z,945.4,2026-09-29T16:56:22.236Z,345.0,2026-09-29T16:56:22.235Z,345.5,2026-09-29T16:56:22.235Z,345.9,2026-09-29T16:56:21.636Z,944.5
2026-09-29T16:56:22.636Z,2026-09-29T16:56:22.685Z,2026-09-29T10:56:22.685-06:00,2.85,57,True,STABILIZE,0,0,0.024637,0.702446,-128.493807,0.02521,0.026356,0.052139,39.0187743,-104.8936036,2167.13,-0.066,0.0,0.0,0.02,231.51,0.0,0.0,39.0187742,-104.8936036,2165.86,0.01,59.03,32,6,0.68,1.23,0.005,0.029,-0.028,0,-0.019613,-0.08826,-9.80665,0.002,0.0,0.0,76,-152,140,15.182,0.0,1367,58,,1003,1003,1003,1003,0.02,0.022,0.025,0,0,0,831,0.0128,0.0028,0.0168,0.0029,784.817,46.21,-180.0,0.0,0.0,2026-09-29T16:56:22.624Z,0.003,13.628,0,743.7,1,0,209,3,2026-09-29T16:56:22.576Z,60.8,2026-09-29T16:56:22.631Z,5.5,2026-09-29T16:56:22.632Z,4.7,-5,-11,-1001,0,0,0,2026-09-29T16:56:22.627Z,9.5,2026-09-29T16:56:22.630Z,6.9,2026-09-29T16:56:22.625Z,11.3,1790700982685027.0,2235467.0,2026-09-29T16:56:22.636Z,0.8,,,,715,,,1,2026-09-29T16:56:22.628Z,8.9,15.172,0.01,58,30.4,0.0,0,1198627887,2026-09-29T16:56:22.628Z,8.4,5.223,0.021,1,2026-09-29T16:56:22.635Z,1.8,,,,,,,,,,,,,,,,,,,231,2167.13,2026-09-29T16:56:22.626Z,10.8,0,0,0,0,2026-09-29T16:56:22.626Z,10.1,1508,1514,1529,1493,255,2026-09-29T16:56:22.629Z,7.4,0.0,0.0,0.0,0.0,0.0,2026-09-29T16:56:22.629Z,7.9,2026-09-29T16:56:22.635Z,1.3,2026-09-29T16:56:22.236Z,400.8,2026-09-29T16:56:22.235Z,401.3,2026-09-29T16:56:22.235Z,401.7,2026-09-29T16:56:22.636Z,0.4
2026-09-29T16:56:22.680Z,2026-09-29T16:56:22.729Z,2026-09-29T10:56:22.729-06:00,2.9,58,True,STABILIZE,0,0,0.024637,0.701873,-128.49438,-0.005157,-0.023491,0.055577,39.0187743,-104.8936036,2167.13,-0.066,0.0,0.0,0.02,231.51,0.0,0.0,39.0187742,-104.8936036,2165.86,0.01,59.03,32,6,0.68,1.23,0.005,0.029,-0.028,0,-0.02942,-0.098066,-9.80665,0.002,0.0,0.0,76,-152,140,15.182,0.0,1367,58,,1003,1003,1003,1003,0.02,0.022,0.025,0,0,0,831,0.0128,0.0028,0.0168,0.0029,784.817,46.21,-180.0,0.0,0.0,2026-09-29T16:56:22.674Z,0.003,6.958,0,793.7,1,0,209,3,2026-09-29T16:56:22.576Z,104.1,2026-09-29T16:56:22.676Z,3.7,2026-09-29T16:56:22.677Z,2.7,-5,-11,-1001,0,0,0,2026-09-29T16:56:22.627Z,52.8,2026-09-29T16:56:22.630Z,50.2,2026-09-29T16:56:22.625Z,54.6,1790700982685027.0,2235467.0,2026-09-29T16:56:22.636Z,44.1,,,,715,,,1,2026-09-29T16:56:22.628Z,52.2,15.172,0.01,58,30.4,0.0,0,1198627887,2026-09-29T16:56:22.628Z,51.7,5.223,0.021,1,2026-09-29T16:56:22.635Z,45.0,,,,,,,,,,,,,,,,,,,231,2167.13,2026-09-29T16:56:22.626Z,54.1,0,0,0,0,2026-09-29T16:56:22.626Z,53.4,1508,1514,1529,1493,255,2026-09-29T16:56:22.629Z,50.7,0.0,0.0,0.0,0.0,0.0,2026-09-29T16:56:22.629Z,51.2,2026-09-29T16:56:22.635Z,44.6,2026-09-29T16:56:22.236Z,444.1,2026-09-29T16:56:22.235Z,444.5,2026-09-29T16:56:22.235Z,445.0,2026-09-29T16:56:22.636Z,43.7
2026-09-29T16:56:22.736Z,2026-09-29T16:56:22.785Z,2026-09-29T10:56:22.785-06:00,2.95,59,True,AUTO,0,0,0.024637,0.702446,-128.49438,-0.002865,0.001719,0.052139,39.0187743,-104.8936036,2167.13,-0.066,0.0,0.0,0.02,231.51,0.0,0.0,39.0187742,-104.8936036,2165.86,0.01,59.03,32,6,0.68,1.23,0.005,0.029,-0.028,0,-0.019613,-0.08826,-9.80665,0.002,0.0,0.0,76,-152,140,15.172,0.01,1367,58,,1034,1034,1034,1034,0.021,0.021,0.023,0,0,0,831,0.0023,0.0033,0.0093,0.0141,784.824,46.2,-180.0,0.0,0.0,2026-09-29T16:56:22.724Z,0.003,13.295,0,843.7,0,0,0,0,2026-09-29T16:56:22.730Z,6.4,2026-09-29T16:56:22.731Z,5.1,2026-09-29T16:56:22.732Z,4.2,-5,-10,-1001,0,-1,0,2026-09-29T16:56:22.727Z,9.1,2026-09-29T16:56:22.630Z,106.5,2026-09-29T16:56:22.725Z,10.9,1790700982685027.0,2235467.0,2026-09-29T16:56:22.636Z,100.5,,,,715,,,1,2026-09-29T16:56:22.728Z,8.4,15.172,0.01,58,30.4,0.0,0,1198627887,2026-09-29T16:56:22.628Z,108.0,5.223,0.021,1,2026-09-29T16:56:22.635Z,101.4,,,,,,,,,,,,,,,,,,,231,2167.13,2026-09-29T16:56:22.726Z,10.4,0,0,0,0,2026-09-29T16:56:22.726Z,9.7,1508,1514,1529,1493,255,2026-09-29T16:56:22.629Z,107.0,0.0,0.0,0.0,0.0,0.0,2026-09-29T16:56:22.629Z,107.5,2026-09-29T16:56:22.635Z,100.9,2026-09-29T16:56:22.736Z,0.3,2026-09-29T16:56:22.735Z,0.8,2026-09-29T16:56:22.735Z,1.3,2026-09-29T16:56:22.636Z,100.0
2026-09-29T16:56:22.780Z,2026-09-29T16:56:22.829Z,2026-09-29T10:56:22.829-06:00,3.0,60,True,AUTO,0,0,0.024637,0.703592,-128.49438,-0.000573,0.037242,0.054431,39.0187743,-104.8936036,2167.13,-0.066,0.0,0.0,0.02,231.51,0.0,0.0,39.0187742,-104.8936036,2165.86,0.01,59.03,32,6,0.68,1.23,0.005,0.029,-0.028,0,-0.02942,-0.098066,-9.80665,0.002,0.0,0.0,76,-152,140,15.172,0.01,1367,58,,1034,1034,1034,1034,0.021,0.021,0.023,0,0,0,831,0.0023,0.0033,0.0093,0.0141,784.824,46.2,-180.0,0.0,0.0,2026-09-29T16:56:22.774Z,0.002,6.991,0,893.7,0,0,0,0,2026-09-29T16:56:22.730Z,50.1,2026-09-29T16:56:22.776Z,3.7,2026-09-29T16:56:22.777Z,2.7,-5,-10,-1001,0,-1,0,2026-09-29T16:56:22.727Z,52.7,2026-09-29T16:56:22.630Z,150.1,2026-09-29T16:56:22.725Z,54.6,1790700982685027.0,2235467.0,2026-09-29T16:56:22.636Z,144.1,,,,715,,,1,2026-09-29T16:56:22.728Z,52.0,15.172,0.01,58,30.4,0.0,0,1198627887,2026-09-29T16:56:22.628Z,151.7,5.223,0.021,1,2026-09-29T16:56:22.635Z,145.0,,,,,,,,,,,,,,,,,,,231,2167.13,2026-09-29T16:56:22.726Z,54.0,0,0,0,0,2026-09-29T16:56:22.726Z,53.3,1508,1514,1529,1493,255,2026-09-29T16:56:22.629Z,150.6,0.0,0.0,0.0,0.0,0.0,2026-09-29T16:56:22.629Z,151.1,2026-09-29T16:56:22.635Z,144.6,2026-09-29T16:56:22.736Z,44.0,2026-09-29T16:56:22.735Z,44.4,2026-09-29T16:56:22.735Z,44.9,2026-09-29T16:56:22.636Z,143.7
2026-09-29T16:56:22.835Z,2026-09-29T16:56:22.884Z,2026-09-29T10:56:22.884-06:00,3.05,61,True,AUTO,0,0,0.024064,0.703019,-128.495526,-0.01547,-0.033232,0.008594,39.0187743,-104.8936036,2167.13,-0.067,0.0,0.0,0.02,231.51,0.0,0.0,39.0187742,-104.8936036,2165.87,0.0,51.34,32,6,0.68,1.23,0.005,0.028,-0.028,0,-0.02942,-0.08826,-9.80665,0.002,0.001,0.0,76,-152,140,15.163,0.0,1367,58,,1066,1066,1066,1066,0.021,0.021,0.023,0,0,0,831,0.0023,0.0033,0.0093,0.0141,784.824,46.2,-180.0,0.0,0.0,2026-09-29T16:56:22.824Z,0.004,11.98,0,943.7,0,0,0,0,2026-09-29T16:56:22.730Z,105.1,2026-09-29T16:56:22.831Z,3.7,2026-09-29T16:56:22.832Z,2.8,-6,-9,-1001,0,-1,0,2026-09-29T16:56:22.827Z,7.7,2026-09-29T16:56:22.830Z,5.1,2026-09-29T16:56:22.825Z,9.5,1790700982685027.0,2235467.0,2026-09-29T16:56:22.636Z,199.2,,,,715,,,1,2026-09-29T16:56:22.828Z,7.1,15.16,0.01,58,31.1,0.0,0,1198652463,2026-09-29T16:56:22.828Z,6.5,5.223,0.021,1,2026-09-29T16:56:22.635Z,200.1,,,,,,,,,,,,,,,,,,,231,2167.13,2026-09-29T16:56:22.826Z,9.0,0,0,0,0,2026-09-29T16:56:22.826Z,8.3,1508,1514,1529,1493,255,2026-09-29T16:56:22.829Z,5.6,0.0,0.0,0.0,0.0,0.0,2026-09-29T16:56:22.829Z,6.1,2026-09-29T16:56:22.635Z,199.6,2026-09-29T16:56:22.736Z,99.0,2026-09-29T16:56:22.735Z,99.5,2026-09-29T16:56:22.735Z,100.0,2026-09-29T16:56:22.636Z,198.7
2026-09-29T16:56:22.880Z,2026-09-29T16:56:22.929Z,2026-09-29T10:56:22.929-06:00,3.1,62,True,AUTO,0,0,0.022918,0.702446,-128.496099,-0.008594,-0.024064,0.06589,39.0187743,-104.8936036,2167.13,-0.067,0.0,0.0,0.02,231.51,0.0,0.0,39.0187742,-104.8936036,2165.87,0.0,51.34,32,6,0.68,1.23,0.005,0.028,-0.028,0,-0.02942,-0.08826,-9.816457,0.002,0.0,0.0,76,-152,140,15.163,0.0,1367,58,,1066,1066,1066,1066,0.021,0.021,0.023,0,0,0,831,0.0023,0.0033,0.0093,0.0141,784.824,46.2,-180.0,0.0,0.0,2026-09-29T16:56:22.874Z,0.003,7.07,0,993.7,0,0,0,0,2026-09-29T16:56:22.730Z,150.2,2026-09-29T16:56:22.876Z,3.8,2026-09-29T16:56:22.877Z,2.7,-6,-9,-1001,0,-1,0,2026-09-29T16:56:22.827Z,52.8,2026-09-29T16:56:22.830Z,50.1,2026-09-29T16:56:22.825Z,54.6,1790700982685027.0,2235467.0,2026-09-29T16:56:22.636Z,244.2,,,,715,,,1,2026-09-29T16:56:22.828Z,52.2,15.16,0.01,58,31.1,0.0,0,1198652463,2026-09-29T16:56:22.828Z,51.6,5.223,0.021,1,2026-09-29T16:56:22.635Z,245.1,,,,,,,,,,,,,,,,,,,231,2167.13,2026-09-29T16:56:22.826Z,54.1,0,0,0,0,2026-09-29T16:56:22.826Z,53.4,1508,1514,1529,1493,255,2026-09-29T16:56:22.829Z,50.6,0.0,0.0,0.0,0.0,0.0,2026-09-29T16:56:22.829Z,51.2,2026-09-29T16:56:22.635Z,244.7,2026-09-29T16:56:22.736Z,144.1,2026-09-29T16:56:22.735Z,144.6,2026-09-29T16:56:22.735Z,145.0,2026-09-29T16:56:22.636Z,243.8
2026-09-29T16:56:22.934Z,2026-09-29T16:56:22.983Z,2026-09-29T10:56:22.983-06:00,3.15,63,True,AUTO,0,0,0.022345,0.7013,-128.496099,-0.002292,-0.001719,0.074485,39.0187743,-104.8936036,2167.13,-0.067,0.0,0.0,0.02,231.51,0.0,0.0,39.0187742,-104.8936036,2165.87,0.0,51.34,32,6,0.68,1.23,0.005,0.028,-0.027,0,-0.02942,-0.098066,-9.80665,0.002,0.0,0.0,76,-152,140,15.16,0.01,1367,58,,1097,1097,1097,1097,0.021,0.021,0.023,0,0,0,831,0.0023,0.0033,0.0093,0.0141,784.824,46.2,-180.0,0.0,0.0,2026-09-29T16:56:22.924Z,0.003,10.96,0,-9.2,0,0,0,0,2026-09-29T16:56:22.730Z,204.1,2026-09-29T16:56:22.929Z,4.8,2026-09-29T16:56:22.930Z,3.9,-5,-10,-1001,0,-1,0,2026-09-29T16:56:22.927Z,6.9,2026-09-29T16:56:22.830Z,104.1,2026-09-29T16:56:22.925Z,8.7,1790700982685027.0,2235467.0,2026-09-29T16:56:22.636Z,298.2,,,,715,,,1,2026-09-29T16:56:22.928Z,6.2,15.16,0.01,58,31.1,0.0,0,1198652463,2026-09-29T16:56:22.828Z,105.5,5.223,0.021,1,2026-09-29T16:56:22.635Z,299.1,,,,,,,,,,,,,,,,,,,231,2167.13,2026-09-29T16:56:22.926Z,8.2,0,0,0,0,2026-09-29T16:56:22.926Z,7.5,1508,1514,1529,1493,255,2026-09-29T16:56:22.829Z,104.6,0.0,0.0,0.0,0.0,0.0,2026-09-29T16:56:22.829Z,105.1,2026-09-29T16:56:22.635Z,298.6,2026-09-29T16:56:22.736Z,198.0,2026-09-29T16:56:22.735Z,198.5,2026-09-29T16:56:22.735Z,199.0,2026-09-29T16:56:22.636Z,297.7
2026-09-29T16:56:22.980Z,2026-09-29T16:56:23.029Z,2026-09-29T10:56:23.029-06:00,3.2,64,True,AUTO,0,0,0.021772,0.701873,-128.496672,-0.017189,0.003438,0.048701,39.0187743,-104.8936036,2167.13,-0.067,0.0,0.0,0.02,231.51,0.0,0.0,39.0187742,-104.8936036,2165.87,0.0,51.34,32,6,0.68,1.23,0.005,0.028,-0.027,0,-0.02942,-0.08826,-9.796843,0.002,0.0,0.0,76,-152,140,15.16,0.01,1367,58,,1097,1097,1097,1097,0.021,0.021,0.023,0,0,0,831,0.0023,0.0033,0.0093,0.0141,784.824,46.2,-180.0,0.0,0.0,2026-09-29T16:56:22.974Z,0.002,7.018,0,40.8,0,0,0,0,2026-09-29T16:56:22.730Z,250.2,2026-09-29T16:56:22.976Z,3.7,2026-09-29T16:56:22.977Z,2.7,-5,-10,-1001,0,-1,0,2026-09-29T16:56:22.927Z,53.0,2026-09-29T16:56:22.830Z,150.1,2026-09-29T16:56:22.925Z,54.7,1790700982685027.0,2235467.0,2026-09-29T16:56:22.636Z,344.2,,,,715,,,1,2026-09-29T16:56:22.928Z,52.3,15.16,0.01,58,31.1,0.0,0,1198652463,2026-09-29T16:56:22.828Z,151.6,5.223,0.021,1,2026-09-29T16:56:22.635Z,345.1,,,,,,,,,,,,,,,,,,,231,2167.13,2026-09-29T16:56:22.926Z,54.2,0,0,0,0,2026-09-29T16:56:22.926Z,53.5,1508,1514,1529,1493,255,2026-09-29T16:56:22.829Z,150.6,0.0,0.0,0.0,0.0,0.0,2026-09-29T16:56:22.829Z,151.1,2026-09-29T16:56:22.635Z,344.6,2026-09-29T16:56:22.736Z,244.1,2026-09-29T16:56:22.735Z,244.5,2026-09-29T16:56:22.735Z,245.0,2026-09-29T16:56:22.636Z,343.7
2026-09-29T16:56:23.034Z,2026-09-29T16:56:23.083Z,2026-09-29T10:56:23.083-06:00,3.25,65,True,AUTO,0,0,0.021199,0.700727,-128.497818,-0.010886,-0.021199,0.032659,39.0187743,-104.8936036,2167.13,-0.067,0.0,0.0,0.02,231.51,0.0,0.0,39.0187742,-104.8936036,2165.87,0.01,221.98,32,6,0.68,1.23,0.005,0.027,-0.026,0,-0.02942,-0.08826,-9.80665,0.002,0.001,0.0,76,-152,140,15.169,0.01,1367,58,,1113,1113,1113,1113,0.021,0.021,0.023,0,0,0,831,0.0023,0.0033,0.0093,0.0141,784.824,46.2,-180.0,0.0,0.0,2026-09-29T16:56:23.024Z,0.002,11.723,0,90.8,0,0,0,0,2026-09-29T16:56:22.730Z,304.9,2026-09-29T16:56:23.031Z,3.7,2026-09-29T16:56:23.032Z,2.8,-5,-10,-1001,0,-1,-1,2026-09-29T16:56:23.027Z,7.7,2026-09-29T16:56:23.030Z,5.0,2026-09-29T16:56:23.025Z,9.5,1790700982685027.0,2235467.0,2026-09-29T16:56:22.636Z,398.9,,,,715,,,1,2026-09-29T16:56:23.028Z,7.0,15.168,0.01,58,31.2,0.0,0,1198652463,2026-09-29T16:56:23.028Z,6.6,5.223,0.021,1,2026-09-29T16:56:22.635Z,399.8,,,,,,,,,,,,,,,,,,,231,2167.13,2026-09-29T16:56:23.026Z,9.0,0,0,0,0,2026-09-29T16:56:23.026Z,8.3,1508,1514,1529,1493,255,2026-09-29T16:56:23.029Z,5.5,0.0,0.0,0.0,0.0,0.0,2026-09-29T16:56:23.029Z,6.0,2026-09-29T16:56:22.635Z,399.4,2026-09-29T16:56:22.736Z,298.8,2026-09-29T16:56:22.735Z,299.3,2026-09-29T16:56:22.735Z,299.7,2026-09-29T16:56:22.636Z,398.5
2026-09-29T16:56:23.080Z,2026-09-29T16:56:23.129Z,2026-09-29T10:56:23.129-06:00,3.3,66,True,AUTO,0,0,0.013751,0.700727,-128.489796,-0.150115,0.012032,0.452637,39.0187743,-104.8936036,2167.13,-0.067,0.0,0.0,0.02,231.51,0.0,0.0,39.0187742,-104.8936036,2165.87,0.01,221.98,32,6,0.68,1.23,0.005,0.027,-0.026,0,-0.02942,-0.11768,-9.80665,0.0,0.001,0.008,76,-152,140,15.169,0.01,1367,58,,1113,1113,1113,1113,0.021,0.021,0.023,0,0,0,831,0.0023,0.0033,0.0093,0.0141,784.824,46.2,-180.0,0.0,0.0,2026-09-29T16:56:23.074Z,0.002,6.858,0,140.8,0,0,0,0,2026-09-29T16:56:22.730Z,350.0,2026-09-29T16:56:23.076Z,3.6,2026-09-29T16:56:23.077Z,2.7,-5,-10,-1001,0,-1,-1,2026-09-29T16:56:23.027Z,52.8,2026-09-29T16:56:23.030Z,50.1,2026-09-29T16:56:23.025Z,54.5,1790700982685027.0,2235467.0,2026-09-29T16:56:22.636Z,444.0,,,,715,,,1,2026-09-29T16:56:23.028Z,52.1,15.168,0.01,58,31.2,0.0,0,1198652463,2026-09-29T16:56:23.028Z,51.7,5.223,0.021,1,2026-09-29T16:56:22.635Z,444.9,,,,,,,,,,,,,,,,,,,231,2167.13,2026-09-29T16:56:23.026Z,54.1,0,0,0,0,2026-09-29T16:56:23.026Z,53.4,1508,1514,1529,1493,255,2026-09-29T16:56:23.029Z,50.6,0.0,0.0,0.0,0.0,0.0,2026-09-29T16:56:23.029Z,51.1,2026-09-29T16:56:22.635Z,444.5,2026-09-29T16:56:22.736Z,343.9,2026-09-29T16:56:22.735Z,344.4,2026-09-29T16:56:22.735Z,344.8,2026-09-29T16:56:22.636Z,443.6
2026-09-29T16:56:23.133Z,2026-09-29T16:56:23.182Z,2026-09-29T10:56:23.182-06:00,3.35,67,True,AUTO,0,0,0.016043,0.696144,-128.49438,-0.103132,-0.167304,0.368985,39.0187742,-104.8936036,2167.13,-0.067,0.0,0.0,0.02,231.5,-0.011,0.0,39.0187742,-104.8936036,2165.87,0.01,221.98,32,6,0.68,1.23,0.006,0.026,-0.026,1,-0.019613,-0.137293,-9.796843,0.0,-0.001,0.005,76,-153,140,15.168,0.01,1367,58,,1144,1144,1144,1144,0.021,0.021,0.023,0,0,0,831,0.0023,0.0033,0.0093,0.0141,784.824,46.2,-180.0,0.0,0.0,2026-09-29T16:56:23.124Z,0.003,9.844,0,190.8,0,0,0,0,2026-09-29T16:56:22.730Z,403.1,2026-09-29T16:56:23.129Z,3.7,2026-09-29T16:56:23.130Z,2.8,-2,-3,-1007,0,-1,-9,2026-09-29T16:56:23.127Z,5.8,2026-09-29T16:56:23.030Z,103.2,2026-09-29T16:56:23.125Z,7.6,1790700982685027.0,2235467.0,2026-09-29T16:56:22.636Z,497.1,,,,715,,,1,2026-09-29T16:56:23.128Z,5.1,15.168,0.01,58,31.2,0.0,0,1198652463,2026-09-29T16:56:23.028Z,104.7,5.223,0.021,1,2026-09-29T16:56:22.635Z,498.0,,,,,,,,,,,,,,,,,,,231,2167.13,2026-09-29T16:56:23.126Z,7.1,0,0,0,0,2026-09-29T16:56:23.126Z,6.4,1508,1514,1529,1493,255,2026-09-29T16:56:23.029Z,103.7,0.0,0.0,0.0,0.0,0.0,2026-09-29T16:56:23.029Z,104.2,2026-09-29T16:56:22.635Z,497.5,2026-09-29T16:56:22.736Z,396.9,2026-09-29T16:56:22.735Z,397.4,2026-09-29T16:56:22.735Z,397.9,2026-09-29T16:56:22.636Z,496.6
2026-09-29T16:56:23.180Z,2026-09-29T16:56:23.229Z,2026-09-29T10:56:23.229-06:00,3.4,68,True,AUTO,0,0,0.022918,0.694425,-128.525893,0.154699,-0.118029,-1.606001,39.0187742,-104.8936036,2167.13,-0.067,0.0,0.0,0.02,231.5,-0.011,0.0,39.0187742,-104.8936036,2165.87,0.01,221.98,32,6,0.68,1.23,0.006,0.026,-0.026,1,0.009807,-0.098066,-9.80665,0.005,-0.001,-0.028,76,-153,140,15.168,0.01,1367,58,,1144,1144,1144,1144,0.021,0.021,0.023,0,0,0,831,0.0023,0.0033,0.0093,0.0141,784.824,46.2,-180.0,0.0,0.0,2026-09-29T16:56:23.174Z,0.002,6.859,0,240.8,0,0,0,0,2026-09-29T16:56:22.730Z,450.0,2026-09-29T16:56:23.176Z,3.6,2026-09-29T16:56:23.177Z,2.7,-2,-3,-1007,0,-1,-9,2026-09-29T16:56:23.127Z,52.8,2026-09-29T16:56:23.030Z,150.1,2026-09-29T16:56:23.125Z,54.5,1790700982685027.0,2235467.0,2026-09-29T16:56:22.636Z,544.0,,,,715,,,1,2026-09-29T16:56:23.128Z,52.1,15.168,0.01,58,31.2,0.0,0,1198652463,2026-09-29T16:56:23.028Z,151.7,5.223,0.021,1,2026-09-29T16:56:22.635Z,544.9,,,,,,,,,,,,,,,,,,,231,2167.13,2026-09-29T16:56:23.126Z,54.0,0,0,0,0,2026-09-29T16:56:23.126Z,53.4,1508,1514,1529,1493,255,2026-09-29T16:56:23.029Z,150.6,0.0,0.0,0.0,0.0,0.0,2026-09-29T16:56:23.029Z,151.1,2026-09-29T16:56:22.635Z,544.5,2026-09-29T16:56:22.736Z,443.9,2026-09-29T16:56:22.735Z,444.4,2026-09-29T16:56:22.735Z,444.8,2026-09-29T16:56:22.636Z,543.6
2026-09-29T16:56:23.236Z,2026-09-29T16:56:23.285Z,2026-09-29T10:56:23.285-06:00,3.45,69,True,AUTO,0,0,0.022918,0.696144,-128.516152,0.067609,-0.243507,-1.340148,39.0187742,-104.8936036,2167.13,-0.067,0.0,0.0,0.02,231.52,-0.011,0.0,39.0187742,-104.8936036,2165.87,0.0,171.86,32,6,0.68,1.23,0.003,0.025,-0.025,6,-0.009807,-0.049033,-9.80665,0.003,-0.003,-0.023,78,-152,136,15.125,0.01,1367,58,,1239,1254,1240,1256,0.787,0.852,0.501,0,0,0,831,0.0111,0.0026,0.0073,0.0095,784.85,46.2,-180.0,0.0,0.0,2026-09-29T16:56:23.224Z,0.003,13.413,0,290.8,0,0,0,0,2026-09-29T16:56:22.730Z,506.6,2026-09-29T16:56:23.231Z,5.2,2026-09-29T16:56:23.232Z,4.3,-10,-15,-1001,0,1,31,2026-09-29T16:56:23.227Z,9.2,2026-09-29T16:56:23.230Z,6.5,2026-09-29T16:56:23.225Z,11.1,1790700982685027.0,2235467.0,2026-09-29T16:56:22.636Z,600.6,,,,715,,,1,2026-09-29T16:56:23.228Z,8.5,14.774,0.79,58,31.2,0.0,0,1198652463,2026-09-29T16:56:23.228Z,8.0,5.223,0.021,1,2026-09-29T16:56:22.635Z,601.5,,,,,,,,,,,,,,,,,,,231,2167.13,2026-09-29T16:56:23.226Z,10.5,0,0,0,0,2026-09-29T16:56:23.226Z,9.8,1508,1514,1529,1493,255,2026-09-29T16:56:23.229Z,7.0,0.0,0.0,0.0,0.0,0.0,2026-09-29T16:56:23.229Z,7.5,2026-09-29T16:56:22.635Z,601.1,2026-09-29T16:56:23.236Z,0.4,2026-09-29T16:56:23.235Z,0.9,2026-09-29T16:56:23.235Z,1.3,2026-09-29T16:56:22.636Z,600.2
2026-09-29T16:56:23.280Z,2026-09-29T16:56:23.329Z,2026-09-29T10:56:23.329-06:00,3.5,70,True,AUTO,0,0,0.020054,0.699581,-128.497818,-0.044118,-0.049847,0.079068,39.0187742,-104.8936036,2167.13,-0.067,0.0,0.0,0.02,231.52,-0.011,0.0,39.0187742,-104.8936036,2165.87,0.0,171.86,32,6,0.68,1.23,0.003,0.025,-0.025,6,-0.02942,-0.009807,-9.83607,0.002,0.0,0.0,78,-152,136,15.125,0.01,1367,58,,1239,1254,1240,1256,0.787,0.852,0.501,0,0,0,831,0.0111,0.0026,0.0073,0.0095,784.85,46.2,-180.0,0.0,0.0,2026-09-29T16:56:23.274Z,0.003,7.046,0,340.8,0,0,0,0,2026-09-29T16:56:22.730Z,550.1,2026-09-29T16:56:23.276Z,3.7,2026-09-29T16:56:23.277Z,2.7,-10,-15,-1001,0,1,31,2026-09-29T16:56:23.227Z,52.7,2026-09-29T16:56:23.230Z,50.0,2026-09-29T16:56:23.225Z,54.6,1790700982685027.0,2235467.0,2026-09-29T16:56:22.636Z,644.1,,,,715,,,1,2026-09-29T16:56:23.228Z,52.0,14.774,0.79,58,31.2,0.0,0,1198652463,2026-09-29T16:56:23.228Z,51.5,5.223,0.021,1,2026-09-29T16:56:22.635Z,645.0,,,,,,,,,,,,,,,,,,,231,2167.13,2026-09-29T16:56:23.226Z,54.0,0,0,0,0,2026-09-29T16:56:23.226Z,53.3,1508,1514,1529,1493,255,2026-09-29T16:56:23.229Z,50.5,0.0,0.0,0.0,0.0,0.0,2026-09-29T16:56:23.229Z,51.0,2026-09-29T16:56:22.635Z,644.6,2026-09-29T16:56:23.236Z,43.9,2026-09-29T16:56:23.235Z,44.4,2026-09-29T16:56:23.235Z,44.8,2026-09-29T16:56:22.636Z,643.7
2026-09-29T16:56:23.333Z,2026-09-29T16:56:23.382Z,2026-09-29T10:56:23.382-06:00,3.55,71,True,AUTO,0,0,0.016616,0.683539,-128.488077,0.05615,0.024637,1.157375,39.0187742,-104.8936036,2167.13,-0.068,0.0,0.0,0.02,231.49,-0.011,0.0,39.0187742,-104.8936036,2165.87,0.0,171.86,32,6,0.68,1.23,0.005,0.024,-0.024,11,0.225553,-0.05884,-9.787037,0.003,0.003,0.02,79,-153,135,14.774,0.79,1367,58,,1331,1342,1331,1343,0.787,0.852,0.501,0,0,0,831,0.0111,0.0026,0.0073,0.0095,784.85,46.2,-180.0,0.0,0.0,2026-09-29T16:56:23.324Z,0.003,9.801,0,390.8,0,0,0,0,2026-09-29T16:56:22.730Z,603.0,2026-09-29T16:56:23.329Z,3.7,2026-09-29T16:56:23.330Z,2.8,0,-15,-1000,3,-3,-19,2026-09-29T16:56:23.327Z,5.8,2026-09-29T16:56:23.230Z,102.9,2026-09-29T16:56:23.325Z,7.5,1790700982685027.0,2235467.0,2026-09-29T16:56:22.636Z,697.0,,,,715,,,1,2026-09-29T16:56:23.328Z,5.1,14.774,0.79,58,31.2,0.0,0,1198652463,2026-09-29T16:56:23.228Z,104.4,5.223,0.021,1,2026-09-29T16:56:22.635Z,697.9,,,,,,,,,,,,,,,,,,,231,2167.13,2026-09-29T16:56:23.326Z,7.0,0,0,0,0,2026-09-29T16:56:23.326Z,6.4,1508,1514,1529,1493,255,2026-09-29T16:56:23.229Z,103.4,0.0,0.0,0.0,0.0,0.0,2026-09-29T16:56:23.229Z,103.9,2026-09-29T16:56:22.635Z,697.5,2026-09-29T16:56:23.236Z,96.8,2026-09-29T16:56:23.235Z,97.3,2026-09-29T16:56:23.235Z,97.7,2026-09-29T16:56:22.636Z,696.6
2026-09-29T16:56:23.380Z,2026-09-29T16:56:23.429Z,2026-09-29T10:56:23.429-06:00,3.6,72,True,AUTO,0,0,0.062452,0.695571,-128.495526,0.628535,0.068755,0.736824,39.0187742,-104.8936036,2167.13,-0.068,0.0,0.0,0.02,231.49,-0.011,0.0,39.0187742,-104.8936036,2165.87,0.0,171.86,32,6,0.68,1.23,0.005,0.024,-0.024,11,0.156906,0.196133,-9.855683,0.008,0.003,0.011,79,-153,135,14.774,0.79,1367,58,,1331,1342,1331,1343,0.787,0.852,0.501,0,0,0,831,0.0111,0.0026,0.0073,0.0095,784.85,46.2,-180.0,0.0,0.0,2026-09-29T16:56:23.374Z,0.003,6.949,0,440.8,0,0,0,0,2026-09-29T16:56:22.730Z,650.0,2026-09-29T16:56:23.376Z,3.6,2026-09-29T16:56:23.377Z,2.7,0,-15,-1000,3,-3,-19,2026-09-29T16:56:23.327Z,52.8,2026-09-29T16:56:23.230Z,149.9,2026-09-29T16:56:23.325Z,54.5,1790700982685027.0,2235467.0,2026-09-29T16:56:22.636Z,744.0,,,,715,,,1,2026-09-29T16:56:23.328Z,52.1,14.774,0.79,58,31.2,0.0,0,1198652463,2026-09-29T16:56:23.228Z,151.4,5.223,0.021,1,2026-09-29T16:56:22.635Z,744.9,,,,,,,,,,,,,,,,,,,231,2167.13,2026-09-29T16:56:23.326Z,54.0,0,0,0,0,2026-09-29T16:56:23.326Z,53.4,1508,1514,1529,1493,255,2026-09-29T16:56:23.229Z,150.4,0.0,0.0,0.0,0.0,0.0,2026-09-29T16:56:23.229Z,150.9,2026-09-29T16:56:22.635Z,744.5,2026-09-29T16:56:23.236Z,143.8,2026-09-29T16:56:23.235Z,144.3,2026-09-29T16:56:23.235Z,144.7,2026-09-29T16:56:22.636Z,743.6
2026-09-29T16:56:23.434Z,2026-09-29T16:56:23.483Z,2026-09-29T10:56:23.483-06:00,3.65,73,True,AUTO,0,0,0.035523,0.7013,-128.510423,0.151834,0.002865,-0.319137,39.0187742,-104.8936036,2167.13,-0.069,0.0,0.0,0.03,231.5,-0.011,0.0,39.0187743,-104.8936036,2165.87,0.02,357.61,32,6,0.68,1.23,0.009,0.036,-0.035,16,0.019613,0.009807,-9.86549,0.002,0.0,-0.006,80,-153,134,14.558,4.04,1367,58,,1399,1421,1408,1410,0.787,0.852,0.501,0,0,0,831,0.0111,0.0026,0.0073,0.0095,784.85,46.2,-180.0,0.0,0.0,2026-09-29T16:56:23.424Z,0.003,11.824,0,490.8,0,0,0,0,2026-09-29T16:56:22.730Z,705.0,2026-09-29T16:56:23.431Z,3.7,2026-09-29T16:56:23.432Z,2.8,13,27,-1013,-5,1,-3,2026-09-29T16:56:23.427Z,7.7,2026-09-29T16:56:23.430Z,5.1,2026-09-29T16:56:23.425Z,9.5,1790700982685027.0,2235467.0,2026-09-29T16:56:22.636Z,799.0,,,,715,,,1,2026-09-29T16:56:23.428Z,7.1,14.498,4.89,58,30.6,0.0,0,1198652463,2026-09-29T16:56:23.428Z,6.6,5.223,0.021,1,2026-09-29T16:56:22.635Z,799.9,,,,,,,,,,,,,,,,,,,231,2167.13,2026-09-29T16:56:23.426Z,9.0,0,0,0,0,2026-09-29T16:56:23.426Z,8.3,1508,1514,1529,1493,255,2026-09-29T16:56:23.429Z,5.6,0.0,0.0,0.0,0.0,0.0,2026-09-29T16:56:23.429Z,6.1,2026-09-29T16:56:22.635Z,799.4,2026-09-29T16:56:23.236Z,198.7,2026-09-29T16:56:23.235Z,199.2,2026-09-29T16:56:23.235Z,199.7,2026-09-29T16:56:22.636Z,798.5
2026-09-29T16:56:23.480Z,2026-09-29T16:56:23.529Z,2026-09-29T10:56:23.529-06:00,3.7,74,True,AUTO,0,0,0.03495,0.696144,-128.506985,-0.037242,-0.083079,-0.725365,39.0187742,-104.8936036,2167.13,-0.069,0.0,0.0,0.03,231.5,-0.011,0.0,39.0187743,-104.8936036,2165.87,0.02,357.61,32,6,0.68,1.23,0.009,0.036,-0.035,16,0.039227,0.078453,-9.89491,0.0,0.0,-0.013,80,-153,134,14.558,4.04,1367,58,,1399,1421,1408,1410,0.787,0.852,0.501,0,0,0,831,0.0111,0.0026,0.0073,0.0095,784.85,46.2,-180.0,0.0,0.0,2026-09-29T16:56:23.474Z,0.003,6.872,0,540.8,0,0,0,0,2026-09-29T16:56:22.730Z,750.0,2026-09-29T16:56:23.476Z,3.6,2026-09-29T16:56:23.477Z,2.7,13,27,-1013,-5,1,-3,2026-09-29T16:56:23.427Z,52.8,2026-09-29T16:56:23.430Z,50.1,2026-09-29T16:56:23.425Z,54.5,1790700982685027.0,2235467.0,2026-09-29T16:56:22.636Z,844.0,,,,715,,,1,2026-09-29T16:56:23.428Z,52.1,14.498,4.89,58,30.6,0.0,0,1198652463,2026-09-29T16:56:23.428Z,51.7,5.223,0.021,1,2026-09-29T16:56:22.635Z,845.0,,,,,,,,,,,,,,,,,,,231,2167.13,2026-09-29T16:56:23.426Z,54.0,0,0,0,0,2026-09-29T16:56:23.426Z,53.4,1508,1514,1529,1493,255,2026-09-29T16:56:23.429Z,50.6,0.0,0.0,0.0,0.0,0.0,2026-09-29T16:56:23.429Z,51.1,2026-09-29T16:56:22.635Z,844.5,2026-09-29T16:56:23.236Z,243.8,2026-09-29T16:56:23.235Z,244.3,2026-09-29T16:56:23.235Z,244.7,2026-09-29T16:56:22.636Z,843.6
2026-09-29T16:56:23.532Z,2026-09-29T16:56:23.581Z,2026-09-29T10:56:23.581-06:00,3.75,75,True,AUTO,0,0,0.011459,0.694998,-128.49438,0.084798,-0.278457,-0.026929,39.0187742,-104.8936036,2167.12,-0.07,0.0,0.0,0.02,231.51,-0.011,0.0,39.0187743,-104.8936036,2165.87,0.02,357.61,32,6,0.68,1.23,0.007,0.023,-0.022,21,0.156906,-0.382459,-9.86549,0.005,-0.003,0.0,82,-153,132,14.498,4.89,1368,58,,1467,1478,1470,1476,0.787,0.852,0.501,0,0,0,831,0.0111,0.0026,0.0073,0.0095,784.85,46.2,-180.0,0.0,0.0,2026-09-29T16:56:23.524Z,0.003,9.785,0,590.8,0,0,0,0,2026-09-29T16:56:22.730Z,803.0,2026-09-29T16:56:23.529Z,3.7,2026-09-29T16:56:23.530Z,2.8,0,16,-1006,-6,2,3,2026-09-29T16:56:23.527Z,5.7,2026-09-29T16:56:23.430Z,103.1,2026-09-29T16:56:23.525Z,7.5,1790700982685027.0,2235467.0,2026-09-29T16:56:22.636Z,897.0,,,,716,,,1,2026-09-29T16:56:23.528Z,5.1,14.498,4.89,58,30.6,0.0,0,1198652463,2026-09-29T16:56:23.428Z,104.6,5.223,0.021,1,2026-09-29T16:56:22.635Z,897.9,,,,,,,,,,,,,,,,,,,231,2167.12,2026-09-29T16:56:23.526Z,7.0,0,0,0,0,2026-09-29T16:56:23.526Z,6.3,1508,1514,1529,1493,255,2026-09-29T16:56:23.429Z,103.6,0.0,0.0,0.0,0.0,0.0,2026-09-29T16:56:23.429Z,104.1,2026-09-29T16:56:22.635Z,897.5,2026-09-29T16:56:23.236Z,296.8,2026-09-29T16:56:23.235Z,297.2,2026-09-29T16:56:23.235Z,297.7,2026-09-29T16:56:22.636Z,896.6
2026-09-29T16:56:23.581Z,2026-09-29T16:56:23.630Z,2026-09-29T10:56:23.630-06:00,3.8,76,True,AUTO,0,0,0.045264,0.714478,-128.493807,0.741407,0.425708,-0.197097,39.0187742,-104.8936036,2167.12,-0.07,0.0,0.0,0.02,231.51,-0.011,0.0,39.0187743,-104.8936036,2165.87,0.02,357.61,32,6,0.68,1.23,0.007,0.023,-0.022,21,-0.08826,0.009807,-9.787037,0.016,0.008,-0.003,82,-153,132,14.498,4.89,1368,58,,1467,1478,1470,1476,0.787,0.852,0.501,0,0,0,831,0.0111,0.0026,0.0073,0.0095,784.85,46.2,-180.0,0.0,0.0,2026-09-29T16:56:23.574Z,0.002,7.89,0,640.8,1,3,217,3,2026-09-29T16:56:23.576Z,5.1,2026-09-29T16:56:23.577Z,3.7,2026-09-29T16:56:23.578Z,2.8,0,16,-1006,-6,2,3,2026-09-29T16:56:23.527Z,53.9,2026-09-29T16:56:23.430Z,151.2,2026-09-29T16:56:23.525Z,55.6,1790700982685027.0,2235467.0,2026-09-29T16:56:22.636Z,945.1,,,,716,,,1,2026-09-29T16:56:23.528Z,53.2,14.498,4.89,58,30.6,0.0,0,1198652463,2026-09-29T16:56:23.428Z,152.7,5.223,0.021,1,2026-09-29T16:56:22.635Z,946.0,,,,,,,,,,,,,,,,,,,231,2167.12,2026-09-29T16:56:23.526Z,55.1,0,0,0,0,2026-09-29T16:56:23.526Z,54.5,1508,1514,1529,1493,255,2026-09-29T16:56:23.429Z,151.7,0.0,0.0,0.0,0.0,0.0,2026-09-29T16:56:23.429Z,152.2,2026-09-29T16:56:22.635Z,945.6,2026-09-29T16:56:23.236Z,344.9,2026-09-29T16:56:23.235Z,345.3,2026-09-29T16:56:23.235Z,345.8,2026-09-29T16:56:22.636Z,944.7
2026-09-29T16:56:23.637Z,2026-09-29T16:56:23.686Z,2026-09-29T10:56:23.686-06:00,3.85,77,True,AUTO,1,0,0.077922,0.710468,-128.493807,1.552716,-0.20913,-0.472117,39.0187742,-104.8936036,2167.12,-0.07,0.0,0.0,0.02,231.52,-0.011,0.0,39.0187742,-104.8936036,2165.87,0.01,121.6,32,6,0.68,1.23,0.004,0.021,-0.021,26,0.039227,-0.1471,-9.796843,0.033,-0.001,-0.008,84,-154,130,14.316,7.36,1368,58,,1528,1531,1520,1538,0.787,0.852,0.501,0,0,0,831,0.0111,0.0026,0.0073,0.0095,784.85,46.2,-180.0,0.0,0.0,2026-09-29T16:56:23.624Z,0.002,14.583,0,690.8,0,0,0,0,2026-09-29T16:56:23.631Z,6.9,2026-09-29T16:56:23.632Z,5.5,2026-09-29T16:56:23.633Z,4.6,16,-46,-1012,6,-4,4,2026-09-29T16:56:23.627Z,10.4,2026-09-29T16:56:23.630Z,7.8,2026-09-29T16:56:23.625Z,12.3,1790700983685228.0,2236467.0,2026-09-29T16:56:23.637Z,0.8,,,,716,,,1,2026-09-29T16:56:23.628Z,9.8,14.122,10.08,58,31.6,0.0,0,1198652463,2026-09-29T16:56:23.628Z,9.3,5.167,0.016,1,2026-09-29T16:56:23.636Z,1.7,,,,,,,,,,,,,,,,,,,231,2167.12,2026-09-29T16:56:23.626Z,11.7,0,0,0,0,2026-09-29T16:56:23.626Z,11.0,1508,1514,1529,1493,255,2026-09-29T16:56:23.629Z,8.3,0.0,0.0,0.0,0.0,0.0,2026-09-29T16:56:23.629Z,8.8,2026-09-29T16:56:23.636Z,1.3,2026-09-29T16:56:23.236Z,401.6,2026-09-29T16:56:23.235Z,402.0,2026-09-29T16:56:23.235Z,402.5,2026-09-29T16:56:23.637Z,0.3
2026-09-29T16:56:23.680Z,2026-09-29T16:56:23.729Z,2026-09-29T10:56:23.729-06:00,3.9,78,True,AUTO,1,0,0.068182,0.648588,-128.511569,1.868988,-1.557299,-0.994082,39.0187742,-104.8936036,2167.12,-0.07,0.0,0.0,0.02,231.52,-0.011,0.0,39.0187742,-104.8936036,2165.87,0.01,121.6,32,6,0.68,1.23,0.004,0.021,-0.021,26,0.0,-0.578592,-9.89491,0.033,-0.026,-0.017,84,-154,130,14.316,7.36,1368,58,,1528,1531,1520,1538,0.787,0.852,0.501,0,0,0,831,0.0111,0.0026,0.0073,0.0095,784.85,46.2,-180.0,0.0,0.0,2026-09-29T16:56:23.674Z,0.003,6.989,0,740.8,0,0,0,0,2026-09-29T16:56:23.631Z,49.2,2026-09-29T16:56:23.676Z,3.7,2026-09-29T16:56:23.677Z,2.7,16,-46,-1012,6,-4,4,2026-09-29T16:56:23.627Z,52.7,2026-09-29T16:56:23.630Z,50.0,2026-09-29T16:56:23.625Z,54.5,1790700983685228.0,2236467.0,2026-09-29T16:56:23.637Z,43.1,,,,716,,,1,2026-09-29T16:56:23.628Z,52.1,14.122,10.08,58,31.6,0.0,0,1198652463,2026-09-29T16:56:23.628Z,51.6,5.167,0.016,1,2026-09-29T16:56:23.636Z,44.0,,,,,,,,,,,,,,,,,,,231,2167.12,2026-09-29T16:56:23.626Z,54.0,0,0,0,0,2026-09-29T16:56:23.626Z,53.3,1508,1514,1529,1493,255,2026-09-29T16:56:23.629Z,50.5,0.0,0.0,0.0,0.0,0.0,2026-09-29T16:56:23.629Z,51.0,2026-09-29T16:56:23.636Z,43.6,2026-09-29T16:56:23.236Z,443.9,2026-09-29T16:56:23.235Z,444.3,2026-09-29T16:56:23.235Z,444.8,2026-09-29T16:56:23.637Z,42.6
2026-09-29T16:56:23.734Z,2026-09-29T16:56:23.783Z,2026-09-29T10:56:23.783-06:00,3.95,79,True,AUTO,1,0,0.092819,0.553477,-128.507558,-0.9259,-2.153175,0.001719,39.0187742,-104.8936036,2167.13,-0.069,0.02,-0.01,0.01,231.49,-0.011,0.0,39.0187742,-104.8936036,2165.87,0.01,121.6,32,6,0.68,1.23,0.029,0.031,-0.011,31,0.186326,-0.107873,-10.091043,-0.013,-0.036,0.0,85,-155,129,14.122,10.08,1368,58,,1580,1582,1582,1578,3.112,9.791,2.997,0,0,0,831,0.0215,0.0025,0.018,0.1152,784.852,46.2,-180.0,0.0,0.0,2026-09-29T16:56:23.724Z,0.003,11.228,0,790.8,0,0,0,0,2026-09-29T16:56:23.631Z,103.5,2026-09-29T16:56:23.729Z,5.1,2026-09-29T16:56:23.730Z,4.2,4,-7,-1016,-1,-33,-12,2026-09-29T16:56:23.727Z,7.2,2026-09-29T16:56:23.630Z,104.4,2026-09-29T16:56:23.725Z,8.9,1790700983685228.0,2236467.0,2026-09-29T16:56:23.637Z,97.4,,,,716,,,1,2026-09-29T16:56:23.728Z,6.5,14.122,10.08,58,31.6,0.0,0,1198652463,2026-09-29T16:56:23.628Z,106.0,5.167,0.016,1,2026-09-29T16:56:23.636Z,98.4,,,,,,,,,,,,,,,,,,,231,2167.13,2026-09-29T16:56:23.726Z,8.4,0,0,0,0,2026-09-29T16:56:23.726Z,7.7,1508,1514,1529,1493,255,2026-09-29T16:56:23.629Z,104.9,0.0,0.0,0.0,0.0,0.0,2026-09-29T16:56:23.629Z,105.4,2026-09-29T16:56:23.636Z,97.9,2026-09-29T16:56:23.734Z,0.3,2026-09-29T16:56:23.733Z,0.8,2026-09-29T16:56:23.733Z,1.3,2026-09-29T16:56:23.637Z,97.0
2026-09-29T16:56:23.780Z,2026-09-29T16:56:23.829Z,2026-09-29T10:56:23.829-06:00,4.0,80,True,AUTO,1,0,0.205692,0.316846,-128.523028,4.412921,-4.88733,-0.962569,39.0187742,-104.8936036,2167.13,-0.069,0.02,-0.01,0.01,231.49,-0.011,0.0,39.0187742,-104.8936036,2165.87,0.01,121.6,32,6,0.68,1.23,0.029,0.031,-0.011,31,0.274586,-0.23536,-10.767702,0.081,-0.084,-0.016,85,-155,129,14.122,10.08,1368,58,,1580,1582,1582,1578,3.112,9.791,2.997,0,0,0,831,0.0215,0.0025,0.018,0.1152,784.852,46.2,-180.0,0.0,0.0,2026-09-29T16:56:23.774Z,0.003,6.889,0,840.8,0,0,0,0,2026-09-29T16:56:23.631Z,149.2,2026-09-29T16:56:23.776Z,3.6,2026-09-29T16:56:23.777Z,2.7,4,-7,-1016,-1,-33,-12,2026-09-29T16:56:23.727Z,52.8,2026-09-29T16:56:23.630Z,150.0,2026-09-29T16:56:23.725Z,54.5,1790700983685228.0,2236467.0,2026-09-29T16:56:23.637Z,143.0,,,,716,,,1,2026-09-29T16:56:23.728Z,52.1,14.122,10.08,58,31.6,0.0,0,1198652463,2026-09-29T16:56:23.628Z,151.6,5.167,0.016,1,2026-09-29T16:56:23.636Z,144.0,,,,,,,,,,,,,,,,,,,231,2167.13,2026-09-29T16:56:23.726Z,54.0,0,0,0,0,2026-09-29T16:56:23.726Z,53.4,1508,1514,1529,1493,255,2026-09-29T16:56:23.629Z,150.5,0.0,0.0,0.0,0.0,0.0,2026-09-29T16:56:23.629Z,151.0,2026-09-29T16:56:23.636Z,143.6,2026-09-29T16:56:23.734Z,45.9,2026-09-29T16:56:23.733Z,46.4,2026-09-29T16:56:23.733Z,46.9,2026-09-29T16:56:23.637Z,142.6
2026-09-29T16:56:23.835Z,2026-09-29T16:56:23.884Z,2026-09-29T10:56:23.884-06:00,4.05,81,True,AUTO,1,0,0.629681,0.045837,-128.479483,8.70724,-4.884465,1.17972,39.0187742,-104.8936036,2167.13,-0.064,0.0,-0.01,-0.05,231.49,-0.011,0.0,39.0187742,-104.8936036,2165.86,0.01,159.44,32,6,0.68,1.23,0.019,0.056,0.053,33,0.02942,0.127486,-10.993255,0.156,-0.084,0.02,89,-154,129,13.936,12.98,1368,58,,1632,1592,1604,1618,3.112,9.791,2.997,0,0,0,831,0.0215,0.0025,0.018,0.1152,784.852,46.2,-180.0,0.0,0.0,2026-09-29T16:56:23.824Z,0.003,11.906,0,890.8,0,0,0,0,2026-09-29T16:56:23.631Z,204.1,2026-09-29T16:56:23.831Z,3.7,2026-09-29T16:56:23.832Z,2.8,-19,39,-1100,128,-99,-1,2026-09-29T16:56:23.827Z,7.8,2026-09-29T16:56:23.830Z,5.1,2026-09-29T16:56:23.825Z,9.5,1790700983685228.0,2236467.0,2026-09-29T16:56:23.637Z,198.0,,,,716,,,1,2026-09-29T16:56:23.828Z,7.1,13.77,16.04,58,31.4,0.0,0,1198652463,2026-09-29T16:56:23.828Z,6.6,5.167,0.016,1,2026-09-29T16:56:23.636Z,199.0,,,,,,,,,,,,,,,,,,,231,2167.13,2026-09-29T16:56:23.826Z,9.0,0,0,0,0,2026-09-29T16:56:23.826Z,8.3,1508,1514,1529,1493,255,2026-09-29T16:56:23.829Z,5.6,-0.04,0.07,-0.0,0.0,0.0,2026-09-29T16:56:23.829Z,6.1,2026-09-29T16:56:23.636Z,198.5,2026-09-29T16:56:23.734Z,100.9,2026-09-29T16:56:23.733Z,101.4,2026-09-29T16:56:23.733Z,101.8,2026-09-29T16:56:23.637Z,197.6
2026-09-29T16:56:23.880Z,2026-09-29T16:56:23.929Z,2026-09-29T10:56:23.929-06:00,4.1,82,True,AUTO,1,0,0.659474,-0.057296,-128.386664,-3.39191,-1.122997,1.775023,39.0187742,-104.8936036,2167.13,-0.064,0.0,-0.01,-0.05,231.49,-0.011,0.0,39.0187742,-104.8936036,2165.86,0.01,159.44,32,6,0.68,1.23,0.019,0.056,0.053,33,-0.05884,-0.039227,-11.326681,-0.056,-0.017,0.03,89,-154,129,13.936,12.98,1368,58,,1632,1592,1604,1618,3.112,9.791,2.997,0,0,0,831,0.0215,0.0025,0.018,0.1152,784.852,46.2,-180.0,0.0,0.0,2026-09-29T16:56:23.874Z,0.003,6.897,0,940.8,0,0,0,0,2026-09-29T16:56:23.631Z,249.2,2026-09-29T16:56:23.876Z,3.7,2026-09-29T16:56:23.877Z,2.7,-19,39,-1100,128,-99,-1,2026-09-29T16:56:23.827Z,52.8,2026-09-29T16:56:23.830Z,50.1,2026-09-29T16:56:23.825Z,54.6,1790700983685228.0,2236467.0,2026-09-29T16:56:23.637Z,243.0,,,,716,,,1,2026-09-29T16:56:23.828Z,52.1,13.77,16.04,58,31.4,0.0,0,1198652463,2026-09-29T16:56:23.828Z,51.7,5.167,0.016,1,2026-09-29T16:56:23.636Z,244.0,,,,,,,,,,,,,,,,,,,231,2167.13,2026-09-29T16:56:23.826Z,54.1,0,0,0,0,2026-09-29T16:56:23.826Z,53.4,1508,1514,1529,1493,255,2026-09-29T16:56:23.829Z,50.6,-0.04,0.07,-0.0,0.0,0.0,2026-09-29T16:56:23.829Z,51.1,2026-09-29T16:56:23.636Z,243.6,2026-09-29T16:56:23.734Z,146.0,2026-09-29T16:56:23.733Z,146.4,2026-09-29T16:56:23.733Z,146.9,2026-09-29T16:56:23.637Z,242.6
2026-09-29T16:56:23.933Z,2026-09-29T16:56:23.982Z,2026-09-29T10:56:23.982-06:00,4.15,83,True,AUTO,1,0,0.183919,-0.265852,-128.333952,-11.63047,-4.945199,0.039534,39.0187742,-104.8936036,2167.14,-0.05,0.0,-0.03,-0.18,231.66,-0.011,0.0,39.0187742,-104.8936036,2165.86,0.01,159.44,32,6,0.68,1.23,0.033,0.187,0.184,31,-0.009807,0.156906,-10.973641,-0.199,-0.086,0.0,91,-151,130,13.77,16.04,1369,58,,1588,1600,1620,1574,3.112,9.791,2.997,0,0,0,831,0.0215,0.0025,0.018,0.1152,784.852,46.2,-180.0,0.0,0.0,2026-09-29T16:56:23.924Z,0.002,9.883,0,990.8,0,0,0,0,2026-09-29T16:56:23.631Z,302.2,2026-09-29T16:56:23.929Z,3.7,2026-09-29T16:56:23.930Z,2.8,5,-86,-1139,-140,-60,19,2026-09-29T16:56:23.927Z,5.8,2026-09-29T16:56:23.830Z,103.2,2026-09-29T16:56:23.925Z,7.6,1790700983685228.0,2236467.0,2026-09-29T16:56:23.637Z,296.1,,,,716,,,1,2026-09-29T16:56:23.928Z,5.1,13.77,16.04,58,31.4,0.0,0,1198652463,2026-09-29T16:56:23.828Z,104.7,5.167,0.016,1,2026-09-29T16:56:23.636Z,297.0,,,,,,,,,,,,,,,,,,,231,2167.14,2026-09-29T16:56:23.926Z,7.1,0,0,0,0,2026-09-29T16:56:23.926Z,6.4,1508,1514,1529,1493,255,2026-09-29T16:56:23.829Z,103.7,-0.04,0.07,-0.0,0.0,0.0,2026-09-29T16:56:23.829Z,104.2,2026-09-29T16:56:23.636Z,296.6,2026-09-29T16:56:23.734Z,199.0,2026-09-29T16:56:23.733Z,199.4,2026-09-29T16:56:23.733Z,199.9,2026-09-29T16:56:23.637Z,295.6
2026-09-29T16:56:23.981Z,2026-09-29T16:56:24.030Z,2026-09-29T10:56:24.030-06:00,4.2,84,True,AUTO,1,0,-0.128343,-0.511651,-128.412447,-4.113837,-4.105243,-2.648784,39.0187742,-104.8936036,2167.14,-0.05,0.0,-0.03,-0.18,231.66,-0.011,0.0,39.0187742,-104.8936036,2165.86,0.01,159.44,32,6,0.68,1.23,0.033,0.187,0.184,31,-0.08826,-0.519752,-10.473502,-0.069,-0.072,-0.046,91,-151,130,13.77,16.04,1369,58,,1588,1600,1620,1574,3.112,9.791,2.997,0,0,0,831,0.0215,0.0025,0.018,0.1152,784.852,46.2,-180.0,0.0,0.0,2026-09-29T16:56:23.974Z,0.003,8.05,0,-6.3,0,0,0,0,2026-09-29T16:56:23.631Z,350.3,2026-09-29T16:56:23.976Z,4.8,2026-09-29T16:56:23.977Z,3.9,5,-86,-1139,-140,-60,19,2026-09-29T16:56:23.927Z,53.9,2026-09-29T16:56:23.830Z,151.3,2026-09-29T16:56:23.925Z,55.7,1790700983685228.0,2236467.0,2026-09-29T16:56:23.637Z,344.2,,,,716,,,1,2026-09-29T16:56:23.928Z,53.3,13.77,16.04,58,31.4,0.0,0,1198652463,2026-09-29T16:56:23.828Z,152.9,5.167,0.016,1,2026-09-29T16:56:23.636Z,345.2,,,,,,,,,,,,,,,,,,,231,2167.14,2026-09-29T16:56:23.926Z,55.2,0,0,0,0,2026-09-29T16:56:23.926Z,54.5,1508,1514,1529,1493,255,2026-09-29T16:56:23.829Z,151.8,-0.04,0.07,-0.0,0.0,0.0,2026-09-29T16:56:23.829Z,152.3,2026-09-29T16:56:23.636Z,344.7,2026-09-29T16:56:23.734Z,247.1,2026-09-29T16:56:23.733Z,247.6,2026-09-29T16:56:23.733Z,248.1,2026-09-29T16:56:23.637Z,343.8
2026-09-29T16:56:24.034Z,2026-09-29T16:56:24.083Z,2026-09-29T10:56:24.083-06:00,4.25,85,True,AUTO,1,0,-0.12777,-0.666923,-128.616993,3.104858,-3.818191,-5.158339,39.0187742,-104.8936036,2167.17,-0.024,-0.03,-0.03,-0.28,231.51,-0.011,0.0,39.0187743,-104.8936036,2165.87,0.01,164.74,32,6,0.68,1.23,0.048,0.292,0.288,31,-0.08826,-0.608012,-10.640215,0.063,-0.068,-0.089,93,-155,133,13.953,13.85,1369,58,,1604,1579,1601,1578,3.112,9.791,2.997,0,0,0,831,0.0215,0.0025,0.018,0.1152,784.852,46.2,-180.0,0.0,0.0,2026-09-29T16:56:24.024Z,0.003,11.831,0,43.7,0,0,0,0,2026-09-29T16:56:23.631Z,404.1,2026-09-29T16:56:24.031Z,3.7,2026-09-29T16:56:24.032Z,2.8,-15,-25,-1092,-13,-55,-67,2026-09-29T16:56:24.027Z,7.7,2026-09-29T16:56:24.030Z,5.0,2026-09-29T16:56:24.025Z,9.5,1790700983685228.0,2236467.0,2026-09-29T16:56:23.637Z,398.0,,,,716,,,1,2026-09-29T16:56:24.028Z,7.0,14.026,10.79,58,32.1,0.0,0,1198652463,2026-09-29T16:56:24.028Z,6.6,5.167,0.016,1,2026-09-29T16:56:23.636Z,398.9,,,,,,,,,,,,,,,,,,,231,2167.17,2026-09-29T16:56:24.026Z,9.0,0,0,0,0,2026-09-29T16:56:24.026Z,8.3,1508,1514,1529,1493,255,2026-09-29T16:56:24.029Z,5.5,-0.2,0.48,-0.02,0.0,0.0,2026-09-29T16:56:24.029Z,6.0,2026-09-29T16:56:23.636Z,398.5,2026-09-29T16:56:23.734Z,300.9,2026-09-29T16:56:23.733Z,301.3,2026-09-29T16:56:23.733Z,301.8,2026-09-29T16:56:23.637Z,397.5
2026-09-29T16:56:24.080Z,2026-09-29T16:56:24.129Z,2026-09-29T10:56:24.129-06:00,4.3,86,True,AUTO,1,0,0.17819,-0.729375,-128.90118,4.64325,0.433156,-6.813614,39.0187742,-104.8936036,2167.17,-0.024,-0.03,-0.03,-0.28,231.51,-0.011,0.0,39.0187743,-104.8936036,2165.87,0.01,164.74,32,6,0.68,1.23,0.048,0.292,0.288,31,-0.304006,-0.539366,-10.434276,0.084,0.007,-0.118,93,-155,133,13.953,13.85,1369,58,,1604,1579,1601,1578,3.112,9.791,2.997,0,0,0,831,0.0215,0.0025,0.018,0.1152,784.852,46.2,-180.0,0.0,0.0,2026-09-29T16:56:24.074Z,0.002,6.921,0,93.7,0,0,0,0,2026-09-29T16:56:23.631Z,449.2,2026-09-29T16:56:24.076Z,3.7,2026-09-29T16:56:24.077Z,2.7,-15,-25,-1092,-13,-55,-67,2026-09-29T16:56:24.027Z,52.8,2026-09-29T16:56:24.030Z,50.2,2026-09-29T16:56:24.025Z,54.6,1790700983685228.0,2236467.0,2026-09-29T16:56:23.637Z,443.1,,,,716,,,1,2026-09-29T16:56:24.028Z,52.2,14.026,10.79,58,32.1,0.0,0,1198652463,2026-09-29T16:56:24.028Z,51.7,5.167,0.016,1,2026-09-29T16:56:23.636Z,444.0,,,,,,,,,,,,,,,,,,,231,2167.17,2026-09-29T16:56:24.026Z,54.1,0,0,0,0,2026-09-29T16:56:24.026Z,53.4,1508,1514,1529,1493,255,2026-09-29T16:56:24.029Z,50.7,-0.2,0.48,-0.02,0.0,0.0,2026-09-29T16:56:24.029Z,51.2,2026-09-29T16:56:23.636Z,443.6,2026-09-29T16:56:23.734Z,346.0,2026-09-29T16:56:23.733Z,346.5,2026-09-29T16:56:23.733Z,346.9,2026-09-29T16:56:23.637Z,442.6
2026-09-29T16:56:24.133Z,2026-09-29T16:56:24.182Z,2026-09-29T10:56:24.182-06:00,4.35,87,True,AUTO,1,0,0.136937,-0.698436,-129.228912,-1.541256,-0.616503,-7.326411,39.0187742,-104.8936037,2167.21,0.011,-0.02,-0.05,-0.36,230.96,-0.011,-0.009,39.0187743,-104.8936036,2165.87,0.01,164.74,32,6,0.68,1.23,0.063,0.37,0.365,32,0.009807,-0.20594,-10.610795,-0.026,-0.013,-0.128,95,-155,135,14.026,10.79,1369,58,,1628,1568,1591,1586,3.112,9.791,2.997,0,0,0,831,0.0215,0.0025,0.018,0.1152,784.852,46.2,-180.0,0.0,0.0,2026-09-29T16:56:24.124Z,0.002,10.396,0,143.7,0,0,0,0,2026-09-29T16:56:23.631Z,502.7,2026-09-29T16:56:24.130Z,3.7,2026-09-29T16:56:24.130Z,2.8,8,11,-1072,11,40,-128,2026-09-29T16:56:24.127Z,6.3,2026-09-29T16:56:24.030Z,103.7,2026-09-29T16:56:24.125Z,8.1,1790700983685228.0,2236467.0,2026-09-29T16:56:23.637Z,496.6,,,,717,,,1,2026-09-29T16:56:24.128Z,5.7,14.026,10.79,58,32.1,0.0,0,1198652463,2026-09-29T16:56:24.028Z,105.2,5.167,0.016,1,2026-09-29T16:56:23.636Z,497.5,,,,,,,,,,,,,,,,,,,230,2167.21,2026-09-29T16:56:24.126Z,7.6,0,0,0,0,2026-09-29T16:56:24.126Z,6.9,1508,1514,1529,1493,255,2026-09-29T16:56:24.029Z,104.2,-0.2,0.48,-0.02,0.0,0.0,2026-09-29T16:56:24.029Z,104.7,2026-09-29T16:56:23.636Z,497.1,2026-09-29T16:56:23.734Z,399.5,2026-09-29T16:56:23.733Z,400.0,2026-09-29T16:56:23.733Z,400.4,2026-09-29T16:56:23.637Z,496.1
2026-09-29T16:56:24.180Z,2026-09-29T16:56:24.229Z,2026-09-29T10:56:24.229-06:00,4.4,88,True,AUTO,1,0,0.110581,-0.78266,-129.552633,0.984341,-1.957797,-6.68699,39.0187742,-104.8936037,2167.21,0.011,-0.02,-0.05,-0.36,230.96,-0.011,-0.009,39.0187743,-104.8936036,2165.87,0.01,164.74,32,6,0.68,1.23,0.063,0.37,0.365,32,0.078453,0.068647,-10.434276,0.023,-0.033,-0.116,95,-155,135,14.026,10.79,1369,58,,1628,1568,1591,1586,3.112,9.791,2.997,0,0,0,831,0.0215,0.0025,0.018,0.1152,784.852,46.2,-180.0,0.0,0.0,2026-09-29T16:56:24.174Z,0.002,6.868,0,193.7,0,0,0,0,2026-09-29T16:56:23.631Z,549.1,2026-09-29T16:56:24.176Z,3.6,2026-09-29T16:56:24.177Z,2.7,8,11,-1072,11,40,-128,2026-09-29T16:56:24.127Z,52.7,2026-09-29T16:56:24.030Z,150.1,2026-09-29T16:56:24.125Z,54.5,1790700983685228.0,2236467.0,2026-09-29T16:56:23.637Z,543.0,,,,717,,,1,2026-09-29T16:56:24.128Z,52.1,14.026,10.79,58,32.1,0.0,0,1198652463,2026-09-29T16:56:24.028Z,151.6,5.167,0.016,1,2026-09-29T16:56:23.636Z,544.0,,,,,,,,,,,,,,,,,,,230,2167.21,2026-09-29T16:56:24.126Z,54.0,0,0,0,0,2026-09-29T16:56:24.126Z,53.3,1508,1514,1529,1493,255,2026-09-29T16:56:24.029Z,150.6,-0.2,0.48,-0.02,0.0,0.0,2026-09-29T16:56:24.029Z,151.1,2026-09-29T16:56:23.636Z,543.5,2026-09-29T16:56:23.734Z,445.9,2026-09-29T16:56:23.733Z,446.4,2026-09-29T16:56:23.733Z,446.8,2026-09-29T16:56:23.637Z,542.6
2026-09-29T16:56:24.236Z,2026-09-29T16:56:24.285Z,2026-09-29T10:56:24.285-06:00,4.45,89,True,AUTO,1,0,0.131207,-0.69729,-129.83682,-1.859821,3.729955,-6.502498,39.0187742,-104.8936038,2167.25,0.056,-0.03,-0.09,-0.43,230.33,-0.011,-0.017,39.0187743,-104.8936037,2165.89,0.04,242.9,32,6,0.68,1.23,0.1,0.447,0.435,33,0.0,-0.196133,-10.493116,-0.032,0.065,-0.114,93,-158,134,14.041,11.54,1370,58,,1635,1595,1614,1566,4.237,9.058,4.992,0,0,0,831,0.0501,0.0034,0.0007,0.1739,784.766,46.2,-180.0,0.0,0.0,2026-09-29T16:56:24.224Z,0.002,13.326,0,243.7,0,0,0,0,2026-09-29T16:56:23.631Z,605.6,2026-09-29T16:56:24.231Z,5.1,2026-09-29T16:56:24.232Z,4.2,-12,6,-1067,30,1,-107,2026-09-29T16:56:24.227Z,9.1,2026-09-29T16:56:24.230Z,6.4,2026-09-29T16:56:24.225Z,11.0,1790700983685228.0,2236467.0,2026-09-29T16:56:23.637Z,599.4,,,,717,,,1,2026-09-29T16:56:24.228Z,8.4,13.946,13.15,58,32.6,0.0,0,1198652463,2026-09-29T16:56:24.228Z,8.0,5.167,0.016,1,2026-09-29T16:56:23.636Z,600.4,,,,,,,,,,,,,,,,,,,230,2167.25,2026-09-29T16:56:24.226Z,10.4,0,0,0,0,2026-09-29T16:56:24.226Z,9.7,1508,1514,1529,1493,255,2026-09-29T16:56:24.229Z,6.9,-0.23,1.15,-0.03,0.0,0.01,2026-09-29T16:56:24.229Z,7.4,2026-09-29T16:56:23.636Z,600.0,2026-09-29T16:56:24.236Z,0.3,2026-09-29T16:56:24.235Z,0.8,2026-09-29T16:56:24.235Z,1.2,2026-09-29T16:56:23.637Z,599.0
