time_utc,time_gps_utc,time_local,elapsed_s,sample_n,armed,flight_mode,mission_seq,wp_dist_m,roll_deg,pitch_deg,yaw_deg,roll_rate_deg_s,pitch_rate_deg_s,yaw_rate_deg_s,lat_deg,lon_deg,alt_msl_m,alt_rel_m,vel_n_m_s,vel_e_m_s,vel_d_m_s,heading_deg,north_m,east_m,gps_lat_deg,gps_lon_deg,gps_alt_m,gps_speed_m_s,gps_course_deg,gps_sats,gps_fix_type,gps_hdop,gps_vdop,groundspeed_m_s,airspeed_m_s,climb_m_s,throttle_pct,acc_x_m_s2,acc_y_m_s2,acc_z_m_s2,gyro_x_rad_s,gyro_y_rad_s,gyro_z_rad_s,mag_x_mgauss,mag_y_mgauss,mag_z_mgauss,batt_voltage_v,batt_current_a,batt_consumed_mah,batt_remaining_pct,batt_temp_c,motor1_us,motor2_us,motor3_us,motor4_us,vib_x_m_s2,vib_y_m_s2,vib_z_m_s2,clip_0,clip_1,clip_2,ekf_flags,ekf_vel_var,ekf_pos_horiz_var,ekf_pos_vert_var,ekf_compass_var,baro_press_hpa,baro_temp_c,ap_wind_dir_deg,ap_wind_speed_m_s,ap_wind_speed_z_m_s,Sched_UTC,Sched_Error_ms,Cycle_ms,Slots_Skipped,Temp_Age_ms,HB_Armed,HB_CustomMode,HB_BaseMode,HB_SystemStatus,HB_rx_UTC,HB_Age_ms,ATT_rx_UTC,ATT_Age_ms,IMU_rx_UTC,IMU_Age_ms,RIMU_Xacc,RIMU_Yacc,RIMU_Zacc,RIMU_Xgyro,RIMU_Ygyro,RIMU_Zgyro,RIMU_rx_UTC,RIMU_Age_ms,GPS_rx_UTC,GPS_Age_ms,POS_rx_UTC,POS_Age_ms,SYST_UnixUsec,SYST_BootMs,SYST_rx_UTC,SYST_Age_ms,BAT_Cell2_V,BAT_Cell3_V,BAT_Cell4_V,BAT_Energy_hJ,BAT_Temp_cdegC,BAT_TimeRemaining_s,BAT_ChargeState,BAT_rx_UTC,BAT_Age_ms,SYS_Voltage_V,SYS_Current_A,SYS_BatteryRemaining_pct,SYS_Load_pct,SYS_DropRateComm,SYS_ErrorsComm,SYS_SensorsHealth,SYS_rx_UTC,SYS_Age_ms,PWR_Vcc_V,PWR_Vservo_V,PWR_Flags,PWR_rx_UTC,PWR_Age_ms,ESC1_RPM,ESC2_RPM,ESC3_RPM,ESC4_RPM,ESC1_V,ESC2_V,ESC3_V,ESC4_V,ESC1_A,ESC2_A,ESC3_A,ESC4_A,ESC1_degC,ESC2_degC,ESC3_degC,ESC4_degC,ESC_rx_UTC,ESC_Age_ms,VFR_Heading_deg,VFR_Alt_m,VFR_rx_UTC,VFR_Age_ms,SRV5_us,SRV6_us,SRV7_us,SRV8_us,SRV_rx_UTC,SRV_Age_ms,RC1_us,RC2_us,RC3_us,RC4_us,RC_RSSI,RC_rx_UTC,RC_Age_ms,NAV_RollTarget_deg,NAV_PitchTarget_deg,NAV_AltError_m,NAV_AspdError_m_s,NAV_XtrackError_m,NAV_rx_UTC,NAV_Age_ms,MIS_rx_UTC,MIS_Age_ms,VIB_rx_UTC,VIB_Age_ms,EKF_rx_UTC,EKF_Age_ms,BARO_rx_UTC,BARO_Age_ms,WND_rx_UTC,WND_Age_ms
2026-09-29T17:13:32.067Z,2026-09-29T17:13:32.160Z,2026-09-29T11:13:32.160-06:00,0.0,0,False,POSHOLD,1,0,-0.316846,0.752294,90.401854,-0.003438,-0.009167,-0.008021,39.0187732,-104.8936033,2164.19,0.597,0.0,0.0,-0.01,90.4,-0.011,0.009,39.0187731,-104.8936034,2165.9,0.02,196.26,31,6,0.68,1.25,0.007,0.016,0.015,0,0.039227,-0.11768,-9.80665,0.0,0.0,0.0,-437,311,742,16.564,0.01,1,99,,1000,1000,1000,1000,0.024,0.021,0.025,0,0,0,831,0.0215,0.0017,0.0175,0.0016,784.559,45.32,-180.0,0.0,0.0,2026-09-29T17:13:32.031Z,0.04,37.271,0,-35.8,,,,,,,2026-09-29T17:13:32.059Z,7.3,2026-09-29T17:13:32.060Z,6.5,1,-12,-999,0,0,0,2026-09-29T17:13:32.063Z,3.4,2026-09-29T17:13:32.065Z,1.4,2026-09-29T17:13:32.062Z,4.5,1790702011976090,371586,2026-09-29T17:13:32.038Z,28.2,,,,0,,,1,2026-09-29T17:13:32.064Z,2.8,16.564,0.01,99,32.0,0.0,0,1198652463,2026-09-29T17:13:32.064Z,2.5,5.244,0.016,1,2026-09-29T17:13:32.035Z,31.7,,,,,,,,,,,,,,,,,,,90,2164.19,2026-09-29T17:13:32.062Z,4.2,0,0,0,0,2026-09-29T17:13:32.063Z,3.8,1508,1514,1529,1493,255,2026-09-29T17:13:32.065Z,1.8,0.0,0.0,0.0,0.0,0.0,2026-09-29T17:13:32.065Z,2.1,2026-09-29T17:13:32.053Z,13.3,2026-09-29T17:13:32.057Z,10.0,2026-09-29T17:13:32.056Z,11.0,2026-09-29T17:13:32.054Z,12.3,2026-09-29T17:13:32.055Z,11.7
2026-09-29T17:13:32.084Z,2026-09-29T17:13:32.177Z,2026-09-29T11:13:32.177-06:00,0.05,1,False,POSHOLD,1,0,-0.316273,0.752294,90.401854,-0.006875,-0.004584,-0.026929,39.0187732,-104.8936033,2164.19,0.597,0.0,0.0,-0.01,90.4,-0.011,0.009,39.0187731,-104.8936034,2165.9,0.02,196.26,31,6,0.68,1.25,0.007,0.016,0.015,0,0.039227,-0.11768,-9.80665,0.0,0.0,0.0,-437,311,742,16.564,0.01,1,99,,1000,1000,1000,1000,0.024,0.021,0.025,0,0,0,831,0.0215,0.0017,0.0175,0.0016,784.559,45.32,-180.0,0.0,0.0,2026-09-29T17:13:32.081Z,0.003,5.0,0,14.2,,,,,,,2026-09-29T17:13:32.082Z,2.7,2026-09-29T17:13:32.083Z,2.0,1,-12,-999,0,0,0,2026-09-29T17:13:32.063Z,21.3,2026-09-29T17:13:32.065Z,19.3,2026-09-29T17:13:32.062Z,22.5,1790702011976090,371586,2026-09-29T17:13:32.038Z,46.1,,,,0,,,1,2026-09-29T17:13:32.064Z,20.7,16.564,0.01,99,32.0,0.0,0,1198652463,2026-09-29T17:13:32.064Z,20.4,5.244,0.016,1,2026-09-29T17:13:32.035Z,49.6,,,,,,,,,,,,,,,,,,,90,2164.19,2026-09-29T17:13:32.062Z,22.1,0,0,0,0,2026-09-29T17:13:32.063Z,21.7,1508,1514,1529,1493,255,2026-09-29T17:13:32.065Z,19.7,0.0,0.0,0.0,0.0,0.0,2026-09-29T17:13:32.065Z,20.0,2026-09-29T17:13:32.053Z,31.2,2026-09-29T17:13:32.057Z,28.0,2026-09-29T17:13:32.056Z,28.9,2026-09-29T17:13:32.054Z,30.2,2026-09-29T17:13:32.055Z,29.6
2026-09-29T17:13:32.134Z,2026-09-29T17:13:32.227Z,2026-09-29T11:13:32.227-06:00,0.1,2,False,POSHOLD,1,0,-0.3157,0.75344,90.403573,-0.013751,0.025783,0.018335,39.0187732,-104.8936033,2164.19,0.597,0.0,0.0,-0.01,90.4,-0.011,0.009,39.0187731,-104.8936034,2165.9,0.02,196.26,31,6,0.68,1.25,0.007,0.016,0.015,0,0.049033,-0.127486,-9.816457,0.0,0.0,0.0,-434,304,737,16.564,0.01,1,99,,1000,1000,1000,1000,0.024,0.021,0.025,0,0,0,831,0.0215,0.0017,0.0175,0.0016,784.559,45.32,-180.0,0.0,0.0,2026-09-29T17:13:32.131Z,0.002,4.937,0,64.2,,,,,,,2026-09-29T17:13:32.132Z,2.6,2026-09-29T17:13:32.133Z,1.9,1,-12,-999,0,0,0,2026-09-29T17:13:32.063Z,71.2,2026-09-29T17:13:32.065Z,69.2,2026-09-29T17:13:32.062Z,72.3,1790702011976090,371586,2026-09-29T17:13:32.038Z,96.0,,,,0,,,1,2026-09-29T17:13:32.064Z,70.6,16.564,0.01,99,32.0,0.0,0,1198652463,2026-09-29T17:13:32.064Z,70.3,5.244,0.016,1,2026-09-29T17:13:32.035Z,99.5,,,,,,,,,,,,,,,,,,,90,2164.19,2026-09-29T17:13:32.062Z,72.0,0,0,0,0,2026-09-29T17:13:32.063Z,71.6,1508,1514,1529,1493,255,2026-09-29T17:13:32.065Z,69.6,0.0,0.0,0.0,0.0,0.0,2026-09-29T17:13:32.065Z,69.9,2026-09-29T17:13:32.053Z,81.1,2026-09-29T17:13:32.057Z,77.8,2026-09-29T17:13:32.056Z,78.8,2026-09-29T17:13:32.054Z,80.1,2026-09-29T17:13:32.055Z,79.5
2026-09-29T17:13:32.187Z,2026-09-29T17:13:32.280Z,2026-09-29T11:13:32.280-06:00,0.15,3,False,POSHOLD,1,0,-0.315127,0.752867,90.404719,0.006303,-0.00974,0.017189,39.0187732,-104.8936033,2164.19,0.598,0.0,0.0,-0.01,90.4,-0.011,0.009,39.0187731,-104.8936034,2165.9,0.02,196.26,31,6,0.68,1.25,0.006,0.015,0.014,0,0.02942,-0.11768,-9.80665,0.0,0.0,0.0,-434,304,737,16.568,0.01,1,99,,1000,1000,1000,1000,0.024,0.021,0.025,0,0,0,831,0.0215,0.0017,0.0175,0.0016,784.559,45.32,-180.0,0.0,0.0,2026-09-29T17:13:32.181Z,0.002,7.447,0,114.2,,,,,,,2026-09-29T17:13:32.184Z,3.0,2026-09-29T17:13:32.185Z,2.4,0,-12,-999,0,0,0,2026-09-29T17:13:32.182Z,4.5,2026-09-29T17:13:32.065Z,121.7,2026-09-29T17:13:32.181Z,5.8,1790702011976090,371586,2026-09-29T17:13:32.038Z,148.5,,,,0,,,1,2026-09-29T17:13:32.183Z,4.0,16.564,0.01,99,32.0,0.0,0,1198652463,2026-09-29T17:13:32.064Z,122.8,5.244,0.016,1,2026-09-29T17:13:32.035Z,152.0,,,,,,,,,,,,,,,,,,,90,2164.19,2026-09-29T17:13:32.182Z,5.4,0,0,0,0,2026-09-29T17:13:32.182Z,4.9,1508,1514,1529,1493,255,2026-09-29T17:13:32.065Z,122.1,0.0,0.0,0.0,0.0,0.0,2026-09-29T17:13:32.065Z,122.4,2026-09-29T17:13:32.053Z,133.6,2026-09-29T17:13:32.057Z,130.3,2026-09-29T17:13:32.056Z,131.3,2026-09-29T17:13:32.054Z,132.6,2026-09-29T17:13:32.055Z,132.0
2026-09-29T17:13:32.234Z,2026-09-29T17:13:32.327Z,2026-09-29T11:13:32.327-06:00,0.2,4,False,POSHOLD,1,0,-0.314554,0.752294,90.404719,0.007448,0.010886,0.00974,39.0187732,-104.8936033,2164.19,0.598,0.0,0.0,-0.01,90.4,-0.011,0.009,39.0187731,-104.8936034,2165.9,0.02,196.26,31,6,0.68,1.25,0.006,0.015,0.014,0,0.049033,-0.11768,-9.80665,0.0,0.0,0.0,-434,310,745,16.568,0.01,1,99,,1000,1000,1000,1000,0.024,0.021,0.025,0,0,0,831,0.0215,0.0017,0.0175,0.0016,784.559,45.32,-180.0,0.0,0.0,2026-09-29T17:13:32.231Z,0.002,4.924,0,164.2,,,,,,,2026-09-29T17:13:32.232Z,2.6,2026-09-29T17:13:32.233Z,1.9,0,-12,-999,0,0,0,2026-09-29T17:13:32.182Z,52.0,2026-09-29T17:13:32.065Z,169.2,2026-09-29T17:13:32.181Z,53.3,1790702011976090,371586,2026-09-29T17:13:32.038Z,196.0,,,,0,,,1,2026-09-29T17:13:32.183Z,51.5,16.564,0.01,99,32.0,0.0,0,1198652463,2026-09-29T17:13:32.064Z,170.2,5.244,0.016,1,2026-09-29T17:13:32.035Z,199.5,,,,,,,,,,,,,,,,,,,90,2164.19,2026-09-29T17:13:32.182Z,52.9,0,0,0,0,2026-09-29T17:13:32.182Z,52.4,1508,1514,1529,1493,255,2026-09-29T17:13:32.065Z,169.6,0.0,0.0,0.0,0.0,0.0,2026-09-29T17:13:32.065Z,169.9,2026-09-29T17:13:32.053Z,181.0,2026-09-29T17:13:32.057Z,177.8,2026-09-29T17:13:32.056Z,178.8,2026-09-29T17:13:32.054Z,180.1,2026-09-29T17:13:32.055Z,179.5
2026-09-29T17:13:32.288Z,2026-09-29T17:13:32.381Z,2026-09-29T11:13:32.381-06:00,0.25,5,False,POSHOLD,1,0,-0.313408,0.752867,90.404719,0.001719,0.001719,0.000573,39.0187732,-104.8936033,2164.19,0.598,0.0,0.0,-0.01,90.4,-0.011,0.009,39.0187731,-104.8936034,2165.9,0.02,203.19,31,6,0.68,1.25,0.006,0.015,0.014,0,0.02942,-0.127486,-9.80665,0.0,0.0,0.0,-434,310,745,16.565,0.01,1,99,,1000,1000,1000,1000,0.024,0.021,0.025,0,0,0,831,0.0215,0.0017,0.0175,0.0016,784.559,45.32,-180.0,0.0,0.0,2026-09-29T17:13:32.281Z,0.002,8.318,0,214.2,,,,,,,2026-09-29T17:13:32.285Z,2.6,2026-09-29T17:13:32.286Z,2.0,1,-14,-1000,0,0,0,2026-09-29T17:13:32.282Z,5.5,2026-09-29T17:13:32.284Z,3.6,2026-09-29T17:13:32.281Z,6.7,1790702011976090,371586,2026-09-29T17:13:32.038Z,249.4,,,,0,,,1,2026-09-29T17:13:32.283Z,5.0,16.565,0.01,99,32.3,0.0,0,1198652463,2026-09-29T17:13:32.283Z,4.7,5.244,0.016,1,2026-09-29T17:13:32.035Z,252.9,,,,,,,,,,,,,,,,,,,90,2164.19,2026-09-29T17:13:32.282Z,6.4,0,0,0,0,2026-09-29T17:13:32.282Z,5.9,1508,1514,1529,1493,255,2026-09-29T17:13:32.284Z,3.9,0.0,0.0,0.0,0.0,0.0,2026-09-29T17:13:32.284Z,4.3,2026-09-29T17:13:32.053Z,234.5,2026-09-29T17:13:32.057Z,231.3,2026-09-29T17:13:32.056Z,232.2,2026-09-29T17:13:32.054Z,233.5,2026-09-29T17:13:32.055Z,232.9
2026-09-29T17:13:32.334Z,2026-09-29T17:13:32.427Z,2026-09-29T11:13:32.427-06:00,0.3,6,False,POSHOLD,1,0,-0.311689,0.752867,90.406438,0.018908,0.001146,0.037242,39.0187732,-104.8936033,2164.19,0.598,0.0,0.0,-0.01,90.4,-0.011,0.009,39.0187731,-104.8936034,2165.9,0.02,203.19,31,6,0.68,1.25,0.006,0.015,0.014,0,0.02942,-0.11768,-9.80665,0.0,0.0,0.0,-436,303,742,16.565,0.01,1,99,,1000,1000,1000,1000,0.024,0.021,0.025,0,0,0,831,0.0215,0.0017,0.0175,0.0016,784.559,45.32,-180.0,0.0,0.0,2026-09-29T17:13:32.331Z,0.001,4.867,0,264.2,,,,,,,2026-09-29T17:13:32.332Z,2.6,2026-09-29T17:13:32.333Z,1.9,1,-14,-1000,0,0,0,2026-09-29T17:13:32.282Z,52.0,2026-09-29T17:13:32.284Z,50.1,2026-09-29T17:13:32.281Z,53.3,1790702011976090,371586,2026-09-29T17:13:32.038Z,296.0,,,,0,,,1,2026-09-29T17:13:32.283Z,51.6,16.565,0.01,99,32.3,0.0,0,1198652463,2026-09-29T17:13:32.283Z,51.2,5.244,0.016,1,2026-09-29T17:13:32.035Z,299.5,,,,,,,,,,,,,,,,,,,90,2164.19,2026-09-29T17:13:32.282Z,52.9,0,0,0,0,2026-09-29T17:13:32.282Z,52.5,1508,1514,1529,1493,255,2026-09-29T17:13:32.284Z,50.5,0.0,0.0,0.0,0.0,0.0,2026-09-29T17:13:32.284Z,50.9,2026-09-29T17:13:32.053Z,281.0,2026-09-29T17:13:32.057Z,277.8,2026-09-29T17:13:32.056Z,278.8,2026-09-29T17:13:32.054Z,280.1,2026-09-29T17:13:32.055Z,279.5
2026-09-29T17:13:32.386Z,2026-09-29T17:13:32.479Z,2026-09-29T11:13:32.479-06:00,0.35,7,False,POSHOLD,1,0,-0.311116,0.75344,90.405865,-0.006303,0.012032,-0.000573,39.0187732,-104.8936034,2164.19,0.598,0.0,0.0,-0.01,90.4,-0.011,0.0,39.0187731,-104.8936034,2165.9,0.02,203.19,31,6,0.68,1.25,0.006,0.015,0.014,0,0.039227,-0.11768,-9.816457,0.0,0.0,0.0,-436,303,742,16.562,0.01,1,99,,1000,1000,1000,1000,0.024,0.021,0.025,0,0,0,831,0.0215,0.0017,0.0175,0.0016,784.559,45.32,-180.0,0.0,0.0,2026-09-29T17:13:32.381Z,0.002,7.022,0,314.2,,,,,,,2026-09-29T17:13:32.384Z,2.6,2026-09-29T17:13:32.385Z,1.9,1,-13,-1000,0,0,0,2026-09-29T17:13:32.383Z,4.1,2026-09-29T17:13:32.284Z,102.2,2026-09-29T17:13:32.381Z,5.3,1790702011976090,371586,2026-09-29T17:13:32.038Z,348.1,,,,0,,,1,2026-09-29T17:13:32.383Z,3.6,16.565,0.01,99,32.3,0.0,0,1198652463,2026-09-29T17:13:32.283Z,103.3,5.244,0.016,1,2026-09-29T17:13:32.035Z,351.6,,,,,,,,,,,,,,,,,,,90,2164.19,2026-09-29T17:13:32.382Z,5.0,0,0,0,0,2026-09-29T17:13:32.382Z,4.5,1508,1514,1529,1493,255,2026-09-29T17:13:32.284Z,102.6,0.0,0.0,0.0,0.0,0.0,2026-09-29T17:13:32.284Z,103.0,2026-09-29T17:13:32.053Z,333.1,2026-09-29T17:13:32.057Z,329.9,2026-09-29T17:13:32.056Z,330.9,2026-09-29T17:13:32.054Z,332.2,2026-09-29T17:13:32.055Z,331.6
2026-09-29T17:13:32.435Z,2026-09-29T17:13:32.528Z,2026-09-29T11:13:32.528-06:00,0.4,8,False,POSHOLD,1,0,-0.310543,0.752867,90.405865,0.017189,-0.031513,-0.010313,39.0187732,-104.8936034,2164.19,0.598,0.0,0.0,-0.01,90.4,-0.011,0.0,39.0187731,-104.8936034,2165.9,0.02,203.19,31,6,0.68,1.25,0.006,0.015,0.014,0,0.039227,-0.11768,-9.816457,0.0,0.0,0.0,-442,303,747,16.562,0.01,1,99,,1000,1000,1000,1000,0.024,0.021,0.025,0,0,0,831,0.0215,0.0017,0.0175,0.0016,784.559,45.32,-180.0,0.0,0.0,2026-09-29T17:13:32.431Z,0.003,5.494,0,364.2,,,,,,,2026-09-29T17:13:32.432Z,2.6,2026-09-29T17:13:32.433Z,2.0,1,-13,-1000,0,0,0,2026-09-29T17:13:32.383Z,52.6,2026-09-29T17:13:32.284Z,150.7,2026-09-29T17:13:32.381Z,53.8,1790702011976090,371586,2026-09-29T17:13:32.038Z,396.6,,,,0,,,1,2026-09-29T17:13:32.383Z,52.1,16.565,0.01,99,32.3,0.0,0,1198652463,2026-09-29T17:13:32.283Z,151.8,5.244,0.016,1,2026-09-29T17:13:32.035Z,400.1,,,,,,,,,,,,,,,,,,,90,2164.19,2026-09-29T17:13:32.382Z,53.5,0,0,0,0,2026-09-29T17:13:32.382Z,53.0,1508,1514,1529,1493,255,2026-09-29T17:13:32.284Z,151.1,0.0,0.0,0.0,0.0,0.0,2026-09-29T17:13:32.284Z,151.4,2026-09-29T17:13:32.053Z,381.6,2026-09-29T17:13:32.057Z,378.4,2026-09-29T17:13:32.056Z,379.4,2026-09-29T17:13:32.054Z,380.7,2026-09-29T17:13:32.055Z,380.0
2026-09-29T17:13:32.489Z,2026-09-29T17:13:32.582Z,2026-09-29T11:13:32.582-06:00,0.45,9,False,POSHOLD,1,0,-0.309397,0.752867,90.406438,-0.002865,-0.019481,0.00573,39.0187732,-104.8936034,2164.19,0.599,0.0,0.0,-0.01,90.4,-0.011,0.0,39.0187731,-104.8936033,2165.9,0.02,293.49,31,6,0.68,1.25,0.007,0.015,0.014,0,0.039227,-0.127486,-9.816457,0.0,0.0,0.0,-442,303,747,16.562,0.02,1,99,,1000,1000,1000,1000,0.02,0.021,0.025,0,0,0,831,0.0082,0.0033,0.0195,0.0006,784.573,45.33,-180.0,0.0,0.0,2026-09-29T17:13:32.481Z,0.002,9.447,0,414.2,,,,,,,2026-09-29T17:13:32.485Z,3.7,2026-09-29T17:13:32.486Z,3.0,1,-12,-1000,0,0,0,2026-09-29T17:13:32.482Z,6.5,2026-09-29T17:13:32.484Z,4.6,2026-09-29T17:13:32.481Z,7.8,1790702011976090,371586,2026-09-29T17:13:32.038Z,450.5,,,,0,,,1,2026-09-29T17:13:32.483Z,6.1,16.562,0.02,99,31.2,0.0,0,1198652463,2026-09-29T17:13:32.483Z,5.7,5.244,0.016,1,2026-09-29T17:13:32.035Z,454.0,,,,,,,,,,,,,,,,,,,90,2164.19,2026-09-29T17:13:32.482Z,7.4,0,0,0,0,2026-09-29T17:13:32.482Z,7.0,1508,1514,1529,1493,255,2026-09-29T17:13:32.484Z,5.0,0.0,0.0,0.0,0.0,0.0,2026-09-29T17:13:32.484Z,5.3,2026-09-29T17:13:32.053Z,435.6,2026-09-29T17:13:32.489Z,0.2,2026-09-29T17:13:32.488Z,0.6,2026-09-29T17:13:32.488Z,0.9,2026-09-29T17:13:32.055Z,434.0
2026-09-29T17:13:32.535Z,2026-09-29T17:13:32.628Z,2026-09-29T11:13:32.628-06:00,0.5,10,False,POSHOLD,1,0,-0.308824,0.752294,90.40701,0.026929,-0.005157,0.037815,39.0187732,-104.8936034,2164.19,0.599,0.0,0.0,-0.01,90.4,-0.011,0.0,39.0187731,-104.8936033,2165.9,0.02,293.49,31,6,0.68,1.25,0.007,0.015,0.014,0,0.02942,-0.127486,-9.816457,0.0,0.0,0.0,-434,304,743,16.562,0.02,1,99,,1000,1000,1000,1000,0.02,0.021,0.025,0,0,0,831,0.0082,0.0033,0.0195,0.0006,784.573,45.33,-180.0,0.0,0.0,2026-09-29T17:13:32.531Z,0.002,5.336,0,464.2,,,,,,,2026-09-29T17:13:32.532Z,3.0,2026-09-29T17:13:32.533Z,2.3,1,-12,-1000,0,0,0,2026-09-29T17:13:32.482Z,52.4,2026-09-29T17:13:32.484Z,50.5,2026-09-29T17:13:32.481Z,53.7,1790702011976090,371586,2026-09-29T17:13:32.038Z,496.4,,,,0,,,1,2026-09-29T17:13:32.483Z,51.9,16.562,0.02,99,31.2,0.0,0,1198652463,2026-09-29T17:13:32.483Z,51.6,5.244,0.016,1,2026-09-29T17:13:32.035Z,499.9,,,,,,,,,,,,,,,,,,,90,2164.19,2026-09-29T17:13:32.482Z,53.3,0,0,0,0,2026-09-29T17:13:32.482Z,52.8,1508,1514,1529,1493,255,2026-09-29T17:13:32.484Z,50.8,0.0,0.0,0.0,0.0,0.0,2026-09-29T17:13:32.484Z,51.2,2026-09-29T17:13:32.053Z,481.4,2026-09-29T17:13:32.489Z,46.1,2026-09-29T17:13:32.488Z,46.4,2026-09-29T17:13:32.488Z,46.7,2026-09-29T17:13:32.055Z,479.9
2026-09-29T17:13:32.588Z,2026-09-29T17:13:32.681Z,2026-09-29T11:13:32.681-06:00,0.55,11,False,POSHOLD,1,0,-0.308251,0.752294,90.405865,-0.008021,-0.02521,-0.045264,39.0187732,-104.8936034,2164.2,0.601,0.0,0.0,-0.01,90.4,-0.011,0.0,39.0187731,-104.8936033,2165.9,0.02,293.49,31,6,0.68,1.25,0.007,0.015,0.013,0,0.02942,-0.127486,-9.80665,0.0,0.0,0.0,-434,304,743,16.566,0.01,1,99,,1000,1000,1000,1000,0.02,0.021,0.025,0,0,0,831,0.0082,0.0033,0.0195,0.0006,784.573,45.33,-180.0,0.0,0.0,2026-09-29T17:13:32.581Z,0.002,8.171,0,514.2,0.0,0.0,0.0,0.0,2026-09-29T17:13:32.587Z,0.3,2026-09-29T17:13:32.584Z,3.4,2026-09-29T17:13:32.585Z,2.7,2,-12,-999,0,0,0,2026-09-29T17:13:32.582Z,5.3,2026-09-29T17:13:32.484Z,103.3,2026-09-29T17:13:32.581Z,6.5,1790702011976090,371586,2026-09-29T17:13:32.038Z,549.3,,,,0,,,1,2026-09-29T17:13:32.583Z,4.8,16.562,0.02,99,31.2,0.0,0,1198652463,2026-09-29T17:13:32.483Z,104.5,5.244,0.016,1,2026-09-29T17:13:32.035Z,552.8,,,,,,,,,,,,,,,,,,,90,2164.2,2026-09-29T17:13:32.582Z,6.2,0,0,0,0,2026-09-29T17:13:32.582Z,5.7,1508,1514,1529,1493,255,2026-09-29T17:13:32.484Z,103.7,0.0,0.0,0.0,0.0,0.0,2026-09-29T17:13:32.484Z,104.1,2026-09-29T17:13:32.053Z,534.3,2026-09-29T17:13:32.489Z,99.0,2026-09-29T17:13:32.488Z,99.3,2026-09-29T17:13:32.488Z,99.6,2026-09-29T17:13:32.055Z,532.7
2026-09-29T17:13:32.634Z,2026-09-29T17:13:32.727Z,2026-09-29T11:13:32.727-06:00,0.6,12,False,POSHOLD,1,0,-0.308824,0.752867,90.405865,-0.000573,0.013751,-0.011459,39.0187732,-104.8936034,2164.2,0.601,0.0,0.0,-0.01,90.4,-0.011,0.0,39.0187731,-104.8936033,2165.9,0.02,293.49,31,6,0.68,1.25,0.007,0.015,0.013,0,0.039227,-0.107873,-9.816457,0.0,0.0,0.0,-440,307,742,16.566,0.01,1,99,,1000,1000,1000,1000,0.02,0.021,0.025,0,0,0,831,0.0082,0.0033,0.0195,0.0006,784.573,45.33,-180.0,0.0,0.0,2026-09-29T17:13:32.631Z,0.002,5.042,0,564.2,0.0,0.0,0.0,0.0,2026-09-29T17:13:32.587Z,47.1,2026-09-29T17:13:32.632Z,2.6,2026-09-29T17:13:32.633Z,1.9,2,-12,-999,0,0,0,2026-09-29T17:13:32.582Z,52.1,2026-09-29T17:13:32.484Z,150.2,2026-09-29T17:13:32.581Z,53.3,1790702011976090,371586,2026-09-29T17:13:32.038Z,596.1,,,,0,,,1,2026-09-29T17:13:32.583Z,51.6,16.562,0.02,99,31.2,0.0,0,1198652463,2026-09-29T17:13:32.483Z,151.3,5.244,0.016,1,2026-09-29T17:13:32.035Z,599.6,,,,,,,,,,,,,,,,,,,90,2164.2,2026-09-29T17:13:32.582Z,53.0,0,0,0,0,2026-09-29T17:13:32.582Z,52.5,1508,1514,1529,1493,255,2026-09-29T17:13:32.484Z,150.5,0.0,0.0,0.0,0.0,0.0,2026-09-29T17:13:32.484Z,150.9,2026-09-29T17:13:32.053Z,581.1,2026-09-29T17:13:32.489Z,145.8,2026-09-29T17:13:32.488Z,146.1,2026-09-29T17:13:32.488Z,146.4,2026-09-29T17:13:32.055Z,579.5
2026-09-29T17:13:32.688Z,2026-09-29T17:13:32.781Z,2026-09-29T11:13:32.781-06:00,0.65,13,False,POSHOLD,1,0,-0.308251,0.751721,90.40701,0.014324,-0.029794,0.020626,39.0187732,-104.8936034,2164.2,0.603,0.0,0.0,-0.01,90.4,-0.011,0.0,39.0187731,-104.8936033,2165.9,0.01,83.29,31,6,0.68,1.25,0.007,0.015,0.013,0,0.039227,-0.127486,-9.826263,0.0,0.0,0.0,-440,307,742,16.57,0.01,1,99,,1000,1000,1000,1000,0.02,0.021,0.025,0,0,0,831,0.0082,0.0033,0.0195,0.0006,784.573,45.33,-180.0,0.0,0.0,2026-09-29T17:13:32.681Z,0.002,8.443,0,614.2,0.0,0.0,0.0,0.0,2026-09-29T17:13:32.587Z,100.6,2026-09-29T17:13:32.685Z,2.7,2026-09-29T17:13:32.686Z,2.1,2,-13,-999,0,0,0,2026-09-29T17:13:32.682Z,5.6,2026-09-29T17:13:32.684Z,3.7,2026-09-29T17:13:32.681Z,6.8,1790702011976090,371586,2026-09-29T17:13:32.038Z,649.5,,,,0,,,1,2026-09-29T17:13:32.683Z,5.1,16.57,0.01,99,31.9,0.0,0,1198652463,2026-09-29T17:13:32.683Z,4.7,5.244,0.016,1,2026-09-29T17:13:32.035Z,653.0,,,,,,,,,,,,,,,,,,,90,2164.2,2026-09-29T17:13:32.682Z,6.4,0,0,0,0,2026-09-29T17:13:32.682Z,6.0,1508,1514,1529,1493,255,2026-09-29T17:13:32.684Z,4.0,0.0,0.0,0.0,0.0,0.0,2026-09-29T17:13:32.684Z,4.4,2026-09-29T17:13:32.053Z,634.6,2026-09-29T17:13:32.489Z,199.2,2026-09-29T17:13:32.488Z,199.6,2026-09-29T17:13:32.488Z,199.9,2026-09-29T17:13:32.055Z,633.0
2026-09-29T17:13:32.735Z,2026-09-29T17:13:32.828Z,2026-09-29T11:13:32.828-06:00,0.7,14,False,POSHOLD,1,0,-0.30997,0.751148,90.40701,-0.029221,-0.012605,0.004584,39.0187732,-104.8936034,2164.2,0.603,0.0,0.0,-0.01,90.4,-0.011,0.0,39.0187731,-104.8936033,2165.9,0.01,83.29,31,6,0.68,1.25,0.007,0.015,0.013,0,0.039227,-0.11768,-9.80665,0.0,0.0,0.0,-436,308,739,16.57,0.01,1,99,,1000,1000,1000,1000,0.02,0.021,0.025,0,0,0,831,0.0082,0.0033,0.0195,0.0006,784.573,45.33,-180.0,0.0,0.0,2026-09-29T17:13:32.731Z,0.002,5.281,0,664.2,0.0,0.0,4.0,4.0,2026-09-29T17:13:32.735Z,0.2,2026-09-29T17:13:32.732Z,2.9,2026-09-29T17:13:32.733Z,2.3,2,-13,-999,0,0,0,2026-09-29T17:13:32.682Z,52.3,2026-09-29T17:13:32.684Z,50.4,2026-09-29T17:13:32.681Z,53.6,1790702011976090,371586,2026-09-29T17:13:32.038Z,696.3,,,,0,,,1,2026-09-29T17:13:32.683Z,51.9,16.57,0.01,99,31.9,0.0,0,1198652463,2026-09-29T17:13:32.683Z,51.5,5.244,0.016,1,2026-09-29T17:13:32.035Z,699.8,,,,,,,,,,,,,,,,,,,90,2164.2,2026-09-29T17:13:32.682Z,53.2,0,0,0,0,2026-09-29T17:13:32.682Z,52.8,1508,1514,1529,1493,255,2026-09-29T17:13:32.684Z,50.8,0.0,0.0,0.0,0.0,0.0,2026-09-29T17:13:32.684Z,51.2,2026-09-29T17:13:32.053Z,681.4,2026-09-29T17:13:32.489Z,246.0,2026-09-29T17:13:32.488Z,246.4,2026-09-29T17:13:32.488Z,246.7,2026-09-29T17:13:32.055Z,679.8
2026-09-29T17:13:32.789Z,2026-09-29T17:13:32.882Z,2026-09-29T11:13:32.882-06:00,0.75,15,False,POSHOLD,1,0,-0.310543,0.751721,90.40701,-0.016043,0.024637,0.004011,39.0187732,-104.8936034,2164.2,0.604,0.0,0.0,-0.01,90.4,-0.011,0.0,39.0187731,-104.8936033,2165.9,0.01,83.29,31,6,0.68,1.25,0.006,0.014,0.013,0,0.02942,-0.11768,-9.80665,0.0,0.0,0.0,-436,308,739,16.569,0.01,1,99,,1000,1000,1000,1000,0.02,0.021,0.025,0,0,0,831,0.0082,0.0033,0.0195,0.0006,784.573,45.33,-180.0,0.0,0.0,2026-09-29T17:13:32.781Z,0.003,9.162,0,714.2,0.0,0.0,4.0,4.0,2026-09-29T17:13:32.735Z,54.1,2026-09-29T17:13:32.785Z,3.5,2026-09-29T17:13:32.786Z,2.6,1,-13,-1000,0,0,0,2026-09-29T17:13:32.783Z,5.4,2026-09-29T17:13:32.684Z,104.3,2026-09-29T17:13:32.781Z,7.1,1790702011976090,371586,2026-09-29T17:13:32.038Z,750.2,,,,0,,,1,2026-09-29T17:13:32.784Z,4.7,16.57,0.01,99,31.9,0.0,0,1198652463,2026-09-29T17:13:32.683Z,105.4,5.244,0.016,1,2026-09-29T17:13:32.035Z,753.7,,,,,,,,,,,,,,,,,,,90,2164.2,2026-09-29T17:13:32.782Z,6.6,0,0,0,0,2026-09-29T17:13:32.783Z,5.9,1508,1514,1529,1493,255,2026-09-29T17:13:32.684Z,104.7,0.0,0.0,0.0,0.0,0.0,2026-09-29T17:13:32.684Z,105.0,2026-09-29T17:13:32.053Z,735.3,2026-09-29T17:13:32.489Z,299.9,2026-09-29T17:13:32.488Z,300.2,2026-09-29T17:13:32.488Z,300.6,2026-09-29T17:13:32.055Z,733.7
2026-09-29T17:13:32.835Z,2026-09-29T17:13:32.928Z,2026-09-29T11:13:32.928-06:00,0.8,16,False,POSHOLD,1,0,-0.310543,0.751148,90.407583,-0.011459,-0.001146,0.012605,39.0187732,-104.8936034,2164.2,0.604,0.0,0.0,-0.01,90.4,-0.011,0.0,39.0187731,-104.8936033,2165.9,0.01,83.29,31,6,0.68,1.25,0.006,0.014,0.013,0,0.039227,-0.11768,-9.816457,0.0,0.0,0.0,-438,306,742,16.569,0.01,1,99,,1000,1000,1000,1000,0.02,0.021,0.025,0,0,0,831,0.0082,0.0033,0.0195,0.0006,784.573,45.33,-180.0,0.0,0.0,2026-09-29T17:13:32.831Z,0.003,5.532,0,764.2,0.0,16.0,89.0,3.0,2026-09-29T17:13:32.831Z,3.6,2026-09-29T17:13:32.833Z,2.6,2026-09-29T17:13:32.833Z,1.9,1,-13,-1000,0,0,0,2026-09-29T17:13:32.783Z,51.7,2026-09-29T17:13:32.684Z,150.7,2026-09-29T17:13:32.781Z,53.5,1790702011976090,371586,2026-09-29T17:13:32.038Z,796.6,,,,0,,,1,2026-09-29T17:13:32.784Z,51.1,16.57,0.01,99,31.9,0.0,0,1198652463,2026-09-29T17:13:32.683Z,151.8,5.244,0.016,1,2026-09-29T17:13:32.035Z,800.1,,,,,,,,,,,,,,,,,,,90,2164.2,2026-09-29T17:13:32.782Z,52.9,0,0,0,0,2026-09-29T17:13:32.783Z,52.3,1508,1514,1529,1493,255,2026-09-29T17:13:32.684Z,151.1,0.0,0.0,0.0,0.0,0.0,2026-09-29T17:13:32.684Z,151.4,2026-09-29T17:13:32.053Z,781.6,2026-09-29T17:13:32.489Z,346.3,2026-09-29T17:13:32.488Z,346.6,2026-09-29T17:13:32.488Z,346.9,2026-09-29T17:13:32.055Z,780.1
2026-09-29T17:13:32.892Z,2026-09-29T17:13:32.985Z,2026-09-29T11:13:32.985-06:00,0.85,17,False,POSHOLD,1,0,-0.310543,0.750575,90.408156,0.014324,0.01547,-0.008594,39.0187732,-104.8936034,2164.2,0.604,0.0,0.0,-0.01,90.4,-0.011,0.0,39.0187732,-104.8936034,2165.89,0.0,156.8,31,6,0.68,1.25,0.005,0.014,0.013,0,0.039227,-0.11768,-9.816457,0.0,0.0,0.0,-438,306,742,16.568,0.01,1,99,,1000,1000,1000,1000,0.02,0.021,0.025,0,0,0,831,0.0082,0.0033,0.0195,0.0006,784.573,45.33,-180.0,0.0,0.0,2026-09-29T17:13:32.881Z,0.004,12.709,0,814.2,0.0,16.0,89.0,3.0,2026-09-29T17:13:32.831Z,60.8,2026-09-29T17:13:32.887Z,5.1,2026-09-29T17:13:32.888Z,4.2,2,-12,-1000,0,0,0,2026-09-29T17:13:32.883Z,9.0,2026-09-29T17:13:32.886Z,6.4,2026-09-29T17:13:32.881Z,10.7,1790702012983675,372593,2026-09-29T17:13:32.891Z,0.8,,,,0,,,1,2026-09-29T17:13:32.884Z,8.2,16.568,0.01,99,32.2,0.0,0,1198652463,2026-09-29T17:13:32.884Z,7.7,5.252,0.014,1,2026-09-29T17:13:32.891Z,1.6,,,,,,,,,,,,,,,,,,,90,2164.2,2026-09-29T17:13:32.882Z,10.2,0,0,0,0,2026-09-29T17:13:32.883Z,9.6,1508,1514,1529,1493,255,2026-09-29T17:13:32.885Z,6.8,0.0,0.0,0.0,0.0,0.0,2026-09-29T17:13:32.885Z,7.3,2026-09-29T17:13:32.891Z,1.2,2026-09-29T17:13:32.489Z,403.4,2026-09-29T17:13:32.488Z,403.8,2026-09-29T17:13:32.488Z,404.1,2026-09-29T17:13:32.892Z,0.3
2026-09-29T17:13:32.936Z,2026-09-29T17:13:33.029Z,2026-09-29T11:13:33.029-06:00,0.9,18,False,POSHOLD,1,0,-0.309397,0.748856,90.408156,-0.006303,-0.01547,0.007448,39.0187732,-104.8936034,2164.2,0.604,0.0,0.0,-0.01,90.4,-0.011,0.0,39.0187732,-104.8936034,2165.89,0.0,156.8,31,6,0.68,1.25,0.005,0.014,0.013,0,0.039227,-0.127486,-9.80665,0.0,0.0,0.0,-444,314,745,16.568,0.01,1,99,,1000,1000,1000,1000,0.02,0.021,0.025,0,0,0,831,0.0082,0.0033,0.0195,0.0006,784.573,45.33,-180.0,0.0,0.0,2026-09-29T17:13:32.931Z,0.002,6.941,0,864.2,0.0,16.0,89.0,3.0,2026-09-29T17:13:32.831Z,105.1,2026-09-29T17:13:32.932Z,4.0,2026-09-29T17:13:32.933Z,3.1,2,-12,-1000,0,0,0,2026-09-29T17:13:32.883Z,53.3,2026-09-29T17:13:32.886Z,50.7,2026-09-29T17:13:32.881Z,55.0,1790702012983675,372593,2026-09-29T17:13:32.891Z,45.1,,,,0,,,1,2026-09-29T17:13:32.884Z,52.5,16.568,0.01,99,32.2,0.0,0,1198652463,2026-09-29T17:13:32.884Z,52.0,5.252,0.014,1,2026-09-29T17:13:32.891Z,45.9,,,,,,,,,,,,,,,,,,,90,2164.2,2026-09-29T17:13:32.882Z,54.5,0,0,0,0,2026-09-29T17:13:32.883Z,53.9,1508,1514,1529,1493,255,2026-09-29T17:13:32.885Z,51.1,0.0,0.0,0.0,0.0,0.0,2026-09-29T17:13:32.885Z,51.6,2026-09-29T17:13:32.891Z,45.5,2026-09-29T17:13:32.489Z,447.7,2026-09-29T17:13:32.488Z,448.1,2026-09-29T17:13:32.488Z,448.4,2026-09-29T17:13:32.892Z,44.6
2026-09-29T17:13:32.988Z,2026-09-29T17:13:33.081Z,2026-09-29T11:13:33.081-06:00,0.95,19,False,POSHOLD,1,0,-0.309397,0.748283,90.408729,-0.004584,-0.005157,0.028075,39.0187732,-104.8936034,2164.2,0.604,0.0,0.0,-0.01,90.4,-0.011,0.0,39.0187732,-104.8936034,2165.89,0.0,156.8,31,6,0.68,1.25,0.005,0.014,0.013,0,0.039227,-0.127486,-9.80665,0.0,0.0,0.0,-444,314,745,16.565,0.0,1,99,,1000,1000,1000,1000,0.021,0.02,0.022,0,0,0,831,0.0045,0.0009,0.001,0.0011,784.585,45.34,-180.0,0.0,0.0,2026-09-29T17:13:32.981Z,0.009,8.788,0,914.2,0.0,16.0,89.0,3.0,2026-09-29T17:13:32.831Z,156.9,2026-09-29T17:13:32.984Z,4.1,2026-09-29T17:13:32.985Z,3.4,2,-12,-1000,0,0,0,2026-09-29T17:13:32.983Z,5.7,2026-09-29T17:13:32.886Z,102.5,2026-09-29T17:13:32.981Z,7.0,1790702012983675,372593,2026-09-29T17:13:32.891Z,96.9,,,,0,,,1,2026-09-29T17:13:32.983Z,5.2,16.568,0.01,99,32.2,0.0,0,1198652463,2026-09-29T17:13:32.884Z,103.8,5.252,0.014,1,2026-09-29T17:13:32.891Z,97.7,,,,,,,,,,,,,,,,,,,90,2164.2,2026-09-29T17:13:32.982Z,6.6,0,0,0,0,2026-09-29T17:13:32.982Z,6.1,1508,1514,1529,1493,255,2026-09-29T17:13:32.885Z,102.9,0.0,0.0,0.0,0.0,0.0,2026-09-29T17:13:32.885Z,103.4,2026-09-29T17:13:32.891Z,97.3,2026-09-29T17:13:32.988Z,0.2,2026-09-29T17:13:32.988Z,0.6,2026-09-29T17:13:32.987Z,1.0,2026-09-29T17:13:32.892Z,96.4
2026-09-29T17:13:33.035Z,2026-09-29T17:13:33.128Z,2026-09-29T11:13:33.128-06:00,1.0,20,False,POSHOLD,1,0,-0.309397,0.747137,90.409302,-0.010313,-0.025783,0.005157,39.0187732,-104.8936034,2164.2,0.604,0.0,0.0,-0.01,90.4,-0.011,0.0,39.0187732,-104.8936034,2165.89,0.0,156.8,31,6,0.68,1.25,0.005,0.014,0.013,0,0.039227,-0.127486,-9.80665,0.0,0.0,0.0,-439,307,746,16.565,0.0,1,99,,1000,1000,1000,1000,0.021,0.02,0.022,0,0,0,831,0.0045,0.0009,0.001,0.0011,784.585,45.34,-180.0,0.0,0.0,2026-09-29T17:13:33.031Z,0.002,5.146,0,964.2,0.0,16.0,89.0,3.0,2026-09-29T17:13:32.831Z,203.3,2026-09-29T17:13:33.032Z,2.6,2026-09-29T17:13:33.033Z,1.9,2,-12,-1000,0,0,0,2026-09-29T17:13:32.983Z,52.1,2026-09-29T17:13:32.886Z,148.8,2026-09-29T17:13:32.981Z,53.4,1790702012983675,372593,2026-09-29T17:13:32.891Z,143.3,,,,0,,,1,2026-09-29T17:13:32.983Z,51.6,16.568,0.01,99,32.2,0.0,0,1198652463,2026-09-29T17:13:32.884Z,150.2,5.252,0.014,1,2026-09-29T17:13:32.891Z,144.1,,,,,,,,,,,,,,,,,,,90,2164.2,2026-09-29T17:13:32.982Z,53.0,0,0,0,0,2026-09-29T17:13:32.982Z,52.5,1508,1514,1529,1493,255,2026-09-29T17:13:32.885Z,149.3,0.0,0.0,0.0,0.0,0.0,2026-09-29T17:13:32.885Z,149.8,2026-09-29T17:13:32.891Z,143.7,2026-09-29T17:13:32.988Z,46.6,2026-09-29T17:13:32.988Z,46.9,2026-09-29T17:13:32.987Z,47.3,2026-09-29T17:13:32.892Z,142.8
2026-09-29T17:13:33.089Z,2026-09-29T17:13:33.182Z,2026-09-29T11:13:33.182-06:00,1.05,21,False,POSHOLD,1,0,-0.308251,0.745991,90.409302,0.028075,-0.011459,-0.011459,39.0187732,-104.8936034,2164.2,0.602,0.0,0.0,-0.01,90.4,-0.011,0.0,39.0187732,-104.8936034,2165.88,0.0,7.12,31,6,0.68,1.25,0.005,0.013,0.012,0,0.039227,-0.127486,-9.80665,0.0,0.0,0.0,-439,307,746,16.565,0.01,1,99,,1000,1000,1000,1000,0.021,0.02,0.022,0,0,0,831,0.0045,0.0009,0.001,0.0011,784.585,45.34,-180.0,0.0,0.0,2026-09-29T17:13:33.081Z,0.003,9.32,0,-8.1,0.0,16.0,89.0,3.0,2026-09-29T17:13:32.831Z,257.5,2026-09-29T17:13:33.086Z,3.4,2026-09-29T17:13:33.086Z,2.8,1,-13,-999,0,0,0,2026-09-29T17:13:33.083Z,6.3,2026-09-29T17:13:33.085Z,4.3,2026-09-29T17:13:33.081Z,7.6,1790702012983675,372593,2026-09-29T17:13:32.891Z,197.5,,,,0,,,1,2026-09-29T17:13:33.083Z,5.8,16.565,0.01,99,31.8,0.0,0,1198652463,2026-09-29T17:13:33.083Z,5.5,5.252,0.014,1,2026-09-29T17:13:32.891Z,198.3,,,,,,,,,,,,,,,,,,,90,2164.2,2026-09-29T17:13:33.082Z,7.2,0,0,0,0,2026-09-29T17:13:33.082Z,6.7,1508,1514,1529,1493,255,2026-09-29T17:13:33.084Z,4.7,0.0,0.0,0.0,0.0,0.0,2026-09-29T17:13:33.084Z,5.1,2026-09-29T17:13:32.891Z,197.9,2026-09-29T17:13:32.988Z,100.8,2026-09-29T17:13:32.988Z,101.1,2026-09-29T17:13:32.987Z,101.5,2026-09-29T17:13:32.892Z,197.0
2026-09-29T17:13:33.134Z,2026-09-29T17:13:33.227Z,2026-09-29T11:13:33.227-06:00,1.1,22,False,POSHOLD,1,0,-0.308824,0.745991,90.409875,0.012605,0.022918,-0.00573,39.0187732,-104.8936034,2164.2,0.602,0.0,0.0,-0.01,90.4,-0.011,0.0,39.0187732,-104.8936034,2165.88,0.0,7.12,31,6,0.68,1.25,0.005,0.013,0.012,0,0.02942,-0.11768,-9.816457,0.0,0.0,0.0,-432,309,743,16.565,0.01,1,99,,1000,1000,1000,1000,0.021,0.02,0.022,0,0,0,831,0.0045,0.0009,0.001,0.0011,784.585,45.34,-180.0,0.0,0.0,2026-09-29T17:13:33.131Z,0.002,5.034,0,41.9,0.0,16.0,89.0,3.0,2026-09-29T17:13:32.831Z,303.1,2026-09-29T17:13:33.132Z,2.6,2026-09-29T17:13:33.133Z,1.9,1,-13,-999,0,0,0,2026-09-29T17:13:33.083Z,52.0,2026-09-29T17:13:33.085Z,50.0,2026-09-29T17:13:33.081Z,53.2,1790702012983675,372593,2026-09-29T17:13:32.891Z,243.1,,,,0,,,1,2026-09-29T17:13:33.083Z,51.5,16.565,0.01,99,31.8,0.0,0,1198652463,2026-09-29T17:13:33.083Z,51.1,5.252,0.014,1,2026-09-29T17:13:32.891Z,243.9,,,,,,,,,,,,,,,,,,,90,2164.2,2026-09-29T17:13:33.082Z,52.9,0,0,0,0,2026-09-29T17:13:33.082Z,52.4,1508,1514,1529,1493,255,2026-09-29T17:13:33.084Z,50.4,0.0,0.0,0.0,0.0,0.0,2026-09-29T17:13:33.084Z,50.7,2026-09-29T17:13:32.891Z,243.5,2026-09-29T17:13:32.988Z,146.5,2026-09-29T17:13:32.988Z,146.8,2026-09-29T17:13:32.987Z,147.2,2026-09-29T17:13:32.892Z,242.6
2026-09-29T17:13:33.186Z,2026-09-29T17:13:33.279Z,2026-09-29T11:13:33.279-06:00,1.15,23,False,POSHOLD,1,0,-0.309397,0.746564,90.410448,-0.00974,0.018335,-0.007448,39.0187732,-104.8936034,2164.19,0.598,0.0,0.0,-0.01,90.41,-0.011,0.0,39.0187732,-104.8936034,2165.88,0.0,7.12,31,6,0.68,1.25,0.004,0.011,0.01,0,0.039227,-0.127486,-9.816457,0.0,0.0,0.0,-432,309,743,16.566,0.01,1,99,,1000,1000,1000,1000,0.021,0.02,0.022,0,0,0,831,0.0045,0.0009,0.001,0.0011,784.585,45.34,-180.0,0.0,0.0,2026-09-29T17:13:33.181Z,0.002,6.998,0,91.9,0.0,16.0,89.0,3.0,2026-09-29T17:13:32.831Z,355.1,2026-09-29T17:13:33.184Z,2.6,2026-09-29T17:13:33.185Z,1.9,1,-13,-999,0,0,0,2026-09-29T17:13:33.182Z,4.1,2026-09-29T17:13:33.085Z,102.0,2026-09-29T17:13:33.181Z,5.3,1790702012983675,372593,2026-09-29T17:13:32.891Z,295.1,,,,0,,,1,2026-09-29T17:13:33.183Z,3.6,16.565,0.01,99,31.8,0.0,0,1198652463,2026-09-29T17:13:33.083Z,103.1,5.252,0.014,1,2026-09-29T17:13:32.891Z,295.9,,,,,,,,,,,,,,,,,,,90,2164.19,2026-09-29T17:13:33.182Z,5.0,0,0,0,0,2026-09-29T17:13:33.182Z,4.5,1508,1514,1529,1493,255,2026-09-29T17:13:33.084Z,102.3,0.0,0.0,0.0,0.0,0.0,2026-09-29T17:13:33.084Z,102.7,2026-09-29T17:13:32.891Z,295.5,2026-09-29T17:13:32.988Z,198.5,2026-09-29T17:13:32.988Z,198.8,2026-09-29T17:13:32.987Z,199.2,2026-09-29T17:13:32.892Z,294.6
2026-09-29T17:13:33.234Z,2026-09-29T17:13:33.327Z,2026-09-29T11:13:33.327-06:00,1.2,24,False,POSHOLD,1,0,-0.310543,0.747137,90.409875,-0.014324,-0.001719,0.004011,39.0187732,-104.8936034,2164.19,0.598,0.0,0.0,-0.01,90.41,-0.011,0.0,39.0187732,-104.8936034,2165.88,0.0,7.12,31,6,0.68,1.25,0.004,0.011,0.01,0,0.039227,-0.11768,-9.80665,0.0,0.0,0.0,-436,305,740,16.566,0.01,1,99,,1000,1000,1000,1000,0.021,0.02,0.022,0,0,0,831,0.0045,0.0009,0.001,0.0011,784.585,45.34,-180.0,0.0,0.0,2026-09-29T17:13:33.231Z,0.002,4.942,0,141.9,0.0,16.0,89.0,3.0,2026-09-29T17:13:32.831Z,403.1,2026-09-29T17:13:33.232Z,2.6,2026-09-29T17:13:33.233Z,1.9,1,-13,-999,0,0,0,2026-09-29T17:13:33.182Z,52.0,2026-09-29T17:13:33.085Z,149.9,2026-09-29T17:13:33.181Z,53.3,1790702012983675,372593,2026-09-29T17:13:32.891Z,343.0,,,,0,,,1,2026-09-29T17:13:33.183Z,51.5,16.565,0.01,99,31.8,0.0,0,1198652463,2026-09-29T17:13:33.083Z,151.1,5.252,0.014,1,2026-09-29T17:13:32.891Z,343.8,,,,,,,,,,,,,,,,,,,90,2164.19,2026-09-29T17:13:33.182Z,52.9,0,0,0,0,2026-09-29T17:13:33.182Z,52.4,1508,1514,1529,1493,255,2026-09-29T17:13:33.084Z,150.3,0.0,0.0,0.0,0.0,0.0,2026-09-29T17:13:33.084Z,150.6,2026-09-29T17:13:32.891Z,343.4,2026-09-29T17:13:32.988Z,246.4,2026-09-29T17:13:32.988Z,246.7,2026-09-29T17:13:32.987Z,247.1,2026-09-29T17:13:32.892Z,342.6
2026-09-29T17:13:33.288Z,2026-09-29T17:13:33.381Z,2026-09-29T11:13:33.381-06:00,1.25,25,False,POSHOLD,1,0,-0.30997,0.745991,90.409875,0.001719,-0.041253,-0.01547,39.0187732,-104.8936034,2164.19,0.594,0.0,0.0,0.0,90.41,-0.011,0.0,39.0187732,-104.8936034,2165.89,0.02,177.79,31,6,0.68,1.25,0.004,0.01,0.009,0,0.02942,-0.11768,-9.80665,0.0,0.0,0.0,-436,305,740,16.567,0.01,1,99,,1000,1000,1000,1000,0.021,0.02,0.022,0,0,0,831,0.0045,0.0009,0.001,0.0011,784.585,45.34,-180.0,0.0,0.0,2026-09-29T17:13:33.281Z,0.002,8.364,0,191.9,0.0,16.0,89.0,3.0,2026-09-29T17:13:32.831Z,456.5,2026-09-29T17:13:33.285Z,2.6,2026-09-29T17:13:33.286Z,2.0,1,-12,-999,0,0,0,2026-09-29T17:13:33.282Z,5.5,2026-09-29T17:13:33.284Z,3.6,2026-09-29T17:13:33.281Z,6.8,1790702012983675,372593,2026-09-29T17:13:32.891Z,396.5,,,,0,,,1,2026-09-29T17:13:33.283Z,5.0,16.567,0.01,99,31.6,0.0,0,1198652463,2026-09-29T17:13:33.283Z,4.7,5.252,0.014,1,2026-09-29T17:13:32.891Z,397.3,,,,,,,,,,,,,,,,,,,90,2164.19,2026-09-29T17:13:33.282Z,6.4,0,0,0,0,2026-09-29T17:13:33.282Z,5.9,1508,1514,1529,1493,255,2026-09-29T17:13:33.284Z,3.9,0.0,0.0,0.0,0.0,0.0,2026-09-29T17:13:33.284Z,4.3,2026-09-29T17:13:32.891Z,396.9,2026-09-29T17:13:32.988Z,299.9,2026-09-29T17:13:32.988Z,300.2,2026-09-29T17:13:32.987Z,300.6,2026-09-29T17:13:32.892Z,396.0
2026-09-29T17:13:33.334Z,2026-09-29T17:13:33.427Z,2026-09-29T11:13:33.427-06:00,1.3,26,False,POSHOLD,1,0,-0.308824,0.745991,90.410448,-0.002865,0.00573,0.001146,39.0187732,-104.8936034,2164.19,0.594,0.0,0.0,0.0,90.41,-0.011,0.0,39.0187732,-104.8936034,2165.89,0.02,177.79,31,6,0.68,1.25,0.004,0.01,0.009,0,0.02942,-0.127486,-9.816457,0.0,0.0,0.0,-436,310,736,16.567,0.01,1,99,,1000,1000,1000,1000,0.021,0.02,0.022,0,0,0,831,0.0045,0.0009,0.001,0.0011,784.585,45.34,-180.0,0.0,0.0,2026-09-29T17:13:33.331Z,0.002,5.04,0,241.9,0.0,16.0,89.0,3.0,2026-09-29T17:13:32.831Z,503.1,2026-09-29T17:13:33.332Z,2.6,2026-09-29T17:13:33.333Z,1.9,1,-12,-999,0,0,0,2026-09-29T17:13:33.282Z,52.1,2026-09-29T17:13:33.284Z,50.2,2026-09-29T17:13:33.281Z,53.4,1790702012983675,372593,2026-09-29T17:13:32.891Z,443.1,,,,0,,,1,2026-09-29T17:13:33.283Z,51.6,16.567,0.01,99,31.6,0.0,0,1198652463,2026-09-29T17:13:33.283Z,51.3,5.252,0.014,1,2026-09-29T17:13:32.891Z,443.9,,,,,,,,,,,,,,,,,,,90,2164.19,2026-09-29T17:13:33.282Z,53.0,0,0,0,0,2026-09-29T17:13:33.282Z,52.5,1508,1514,1529,1493,255,2026-09-29T17:13:33.284Z,50.5,0.0,0.0,0.0,0.0,0.0,2026-09-29T17:13:33.284Z,50.9,2026-09-29T17:13:32.891Z,443.5,2026-09-29T17:13:32.988Z,346.5,2026-09-29T17:13:32.988Z,346.8,2026-09-29T17:13:32.987Z,347.2,2026-09-29T17:13:32.892Z,442.6
2026-09-29T17:13:33.386Z,2026-09-29T17:13:33.479Z,2026-09-29T11:13:33.479-06:00,1.35,27,False,POSHOLD,1,0,-0.308824,0.745418,90.411021,-0.020626,0.007448,-0.016616,39.0187732,-104.8936034,2164.19,0.59,0.0,0.0,0.0,90.41,-0.011,0.0,39.0187732,-104.8936034,2165.89,0.02,177.79,31,6,0.68,1.25,0.004,0.009,0.008,0,0.039227,-0.127486,-9.80665,0.0,0.0,0.0,-436,310,736,16.572,0.01,1,99,,1000,1000,1000,1000,0.021,0.02,0.022,0,0,0,831,0.0045,0.0009,0.001,0.0011,784.585,45.34,-180.0,0.0,0.0,2026-09-29T17:13:33.381Z,0.002,7.054,0,291.9,0.0,16.0,89.0,3.0,2026-09-29T17:13:32.831Z,555.2,2026-09-29T17:13:33.384Z,2.6,2026-09-29T17:13:33.385Z,1.9,1,-14,-1000,0,0,0,2026-09-29T17:13:33.383Z,4.1,2026-09-29T17:13:33.284Z,102.2,2026-09-29T17:13:33.381Z,5.3,1790702012983675,372593,2026-09-29T17:13:32.891Z,495.1,,,,0,,,1,2026-09-29T17:13:33.383Z,3.6,16.567,0.01,99,31.6,0.0,0,1198652463,2026-09-29T17:13:33.283Z,103.3,5.252,0.014,1,2026-09-29T17:13:32.891Z,495.9,,,,,,,,,,,,,,,,,,,90,2164.19,2026-09-29T17:13:33.382Z,5.0,0,0,0,0,2026-09-29T17:13:33.382Z,4.5,1508,1514,1529,1493,255,2026-09-29T17:13:33.284Z,102.5,0.0,0.0,0.0,0.0,0.0,2026-09-29T17:13:33.284Z,102.9,2026-09-29T17:13:32.891Z,495.5,2026-09-29T17:13:32.988Z,398.5,2026-09-29T17:13:32.988Z,398.8,2026-09-29T17:13:32.987Z,399.2,2026-09-29T17:13:32.892Z,494.6
2026-09-29T17:13:33.434Z,2026-09-29T17:13:33.527Z,2026-09-29T11:13:33.527-06:00,1.4,28,False,POSHOLD,1,0,-0.308251,0.745991,90.411594,-0.005157,0.018335,0.036669,39.0187732,-104.8936034,2164.19,0.59,0.0,0.0,0.0,90.41,-0.011,0.0,39.0187732,-104.8936034,2165.89,0.02,177.79,31,6,0.68,1.25,0.004,0.009,0.008,0,0.02942,-0.11768,-9.80665,0.0,0.0,0.0,-440,309,750,16.572,0.01,1,99,,1000,1000,1000,1000,0.021,0.02,0.022,0,0,0,831,0.0045,0.0009,0.001,0.0011,784.585,45.34,-180.0,0.0,0.0,2026-09-29T17:13:33.431Z,0.002,4.957,0,341.9,0.0,16.0,89.0,3.0,2026-09-29T17:13:32.831Z,603.1,2026-09-29T17:13:33.432Z,2.6,2026-09-29T17:13:33.433Z,1.9,1,-14,-1000,0,0,0,2026-09-29T17:13:33.383Z,52.0,2026-09-29T17:13:33.284Z,150.1,2026-09-29T17:13:33.381Z,53.3,1790702012983675,372593,2026-09-29T17:13:32.891Z,543.1,,,,0,,,1,2026-09-29T17:13:33.383Z,51.5,16.567,0.01,99,31.6,0.0,0,1198652463,2026-09-29T17:13:33.283Z,151.2,5.252,0.014,1,2026-09-29T17:13:32.891Z,543.9,,,,,,,,,,,,,,,,,,,90,2164.19,2026-09-29T17:13:33.382Z,52.9,0,0,0,0,2026-09-29T17:13:33.382Z,52.4,1508,1514,1529,1493,255,2026-09-29T17:13:33.284Z,150.5,0.0,0.0,0.0,0.0,0.0,2026-09-29T17:13:33.284Z,150.8,2026-09-29T17:13:32.891Z,543.5,2026-09-29T17:13:32.988Z,446.4,2026-09-29T17:13:32.988Z,446.8,2026-09-29T17:13:32.987Z,447.1,2026-09-29T17:13:32.892Z,542.6
2026-09-29T17:13:33.489Z,2026-09-29T17:13:33.582Z,2026-09-29T11:13:33.582-06:00,1.45,29,False,POSHOLD,1,0,-0.308251,0.746564,90.41274,-0.016616,0.013751,0.012605,39.0187732,-104.8936034,2164.18,0.587,0.0,0.0,0.0,90.41,-0.011,0.0,39.0187732,-104.8936034,2165.89,0.01,5.71,31,6,0.68,1.25,0.004,0.009,0.007,0,0.039227,-0.127486,-9.816457,0.0,0.0,0.0,-440,309,750,16.562,0.0,1,99,,1000,1000,1000,1000,0.02,0.02,0.024,0,0,0,831,0.0214,0.0015,0.015,0.0011,784.574,45.34,-180.0,0.0,0.0,2026-09-29T17:13:33.481Z,0.002,9.341,0,391.9,0.0,16.0,89.0,3.0,2026-09-29T17:13:32.831Z,657.5,2026-09-29T17:13:33.485Z,3.6,2026-09-29T17:13:33.486Z,3.0,1,-12,-999,0,0,0,2026-09-29T17:13:33.482Z,6.5,2026-09-29T17:13:33.484Z,4.6,2026-09-29T17:13:33.481Z,7.7,1790702012983675,372593,2026-09-29T17:13:32.891Z,597.5,,,,0,,,1,2026-09-29T17:13:33.483Z,6.0,16.562,0.0,99,31.6,0.0,0,1198652463,2026-09-29T17:13:33.483Z,5.7,5.252,0.014,1,2026-09-29T17:13:32.891Z,598.3,,,,,,,,,,,,,,,,,,,90,2164.18,2026-09-29T17:13:33.482Z,7.4,0,0,0,0,2026-09-29T17:13:33.482Z,6.9,1508,1514,1529,1493,255,2026-09-29T17:13:33.484Z,4.9,0.0,0.0,0.0,0.0,0.0,2026-09-29T17:13:33.484Z,5.3,2026-09-29T17:13:32.891Z,597.9,2026-09-29T17:13:33.489Z,0.2,2026-09-29T17:13:33.488Z,0.6,2026-09-29T17:13:33.488Z,0.9,2026-09-29T17:13:32.892Z,597.0
2026-09-29T17:13:33.534Z,2026-09-29T17:13:33.627Z,2026-09-29T11:13:33.627-06:00,1.5,30,False,POSHOLD,1,0,-0.308251,0.746564,90.413313,0.014897,-0.024064,0.029794,39.0187732,-104.8936034,2164.18,0.587,0.0,0.0,0.0,90.41,-0.011,0.0,39.0187732,-104.8936034,2165.89,0.01,5.71,31,6,0.68,1.25,0.004,0.009,0.007,0,0.039227,-0.11768,-9.80665,0.0,0.0,0.0,-439,303,745,16.562,0.0,1,99,,1000,1000,1000,1000,0.02,0.02,0.024,0,0,0,831,0.0214,0.0015,0.015,0.0011,784.574,45.34,-180.0,0.0,0.0,2026-09-29T17:13:33.531Z,0.002,4.952,0,441.9,0.0,16.0,89.0,3.0,2026-09-29T17:13:32.831Z,703.1,2026-09-29T17:13:33.532Z,2.6,2026-09-29T17:13:33.533Z,1.9,1,-12,-999,0,0,0,2026-09-29T17:13:33.482Z,52.0,2026-09-29T17:13:33.484Z,50.1,2026-09-29T17:13:33.481Z,53.3,1790702012983675,372593,2026-09-29T17:13:32.891Z,643.1,,,,0,,,1,2026-09-29T17:13:33.483Z,51.5,16.562,0.0,99,31.6,0.0,0,1198652463,2026-09-29T17:13:33.483Z,51.2,5.252,0.014,1,2026-09-29T17:13:32.891Z,643.9,,,,,,,,,,,,,,,,,,,90,2164.18,2026-09-29T17:13:33.482Z,52.9,0,0,0,0,2026-09-29T17:13:33.482Z,52.4,1508,1514,1529,1493,255,2026-09-29T17:13:33.484Z,50.5,0.0,0.0,0.0,0.0,0.0,2026-09-29T17:13:33.484Z,50.8,2026-09-29T17:13:32.891Z,643.4,2026-09-29T17:13:33.489Z,45.8,2026-09-29T17:13:33.488Z,46.1,2026-09-29T17:13:33.488Z,46.4,2026-09-29T17:13:32.892Z,642.6
2026-09-29T17:13:33.586Z,2026-09-29T17:13:33.679Z,2026-09-29T11:13:33.679-06:00,1.55,31,False,POSHOLD,1,0,-0.307105,0.745991,90.413313,0.005157,0.004584,0.030367,39.0187732,-104.8936034,2164.18,0.586,0.0,0.0,0.0,90.41,-0.011,0.0,39.0187732,-104.8936034,2165.89,0.01,5.71,31,6,0.68,1.25,0.004,0.009,0.008,0,0.039227,-0.11768,-9.816457,0.0,0.0,0.0,-439,303,745,16.57,0.01,1,99,,1000,1000,1000,1000,0.02,0.02,0.024,0,0,0,831,0.0214,0.0015,0.015,0.0011,784.574,45.34,-180.0,0.0,0.0,2026-09-29T17:13:33.581Z,0.002,7.051,0,491.9,0.0,16.0,89.0,3.0,2026-09-29T17:13:32.831Z,755.2,2026-09-29T17:13:33.584Z,2.6,2026-09-29T17:13:33.585Z,1.9,1,-13,-1001,0,0,0,2026-09-29T17:13:33.583Z,4.1,2026-09-29T17:13:33.484Z,102.2,2026-09-29T17:13:33.581Z,5.3,1790702012983675,372593,2026-09-29T17:13:32.891Z,695.1,,,,0,,,1,2026-09-29T17:13:33.583Z,3.6,16.562,0.0,99,31.6,0.0,0,1198652463,2026-09-29T17:13:33.483Z,103.3,5.252,0.014,1,2026-09-29T17:13:32.891Z,695.9,,,,,,,,,,,,,,,,,,,90,2164.18,2026-09-29T17:13:33.582Z,5.0,0,0,0,0,2026-09-29T17:13:33.582Z,4.5,1508,1514,1529,1493,255,2026-09-29T17:13:33.484Z,102.5,0.0,0.0,0.0,0.0,0.0,2026-09-29T17:13:33.484Z,102.9,2026-09-29T17:13:32.891Z,695.5,2026-09-29T17:13:33.489Z,97.9,2026-09-29T17:13:33.488Z,98.2,2026-09-29T17:13:33.488Z,98.5,2026-09-29T17:13:32.892Z,694.6
2026-09-29T17:13:33.635Z,2026-09-29T17:13:33.728Z,2026-09-29T11:13:33.728-06:00,1.6,32,False,POSHOLD,1,0,-0.307105,0.745418,90.413313,-0.024064,-0.021772,0.010313,39.0187732,-104.8936034,2164.18,0.586,0.0,0.0,0.0,90.41,-0.011,0.0,39.0187732,-104.8936034,2165.89,0.01,5.71,31,6,0.68,1.25,0.004,0.009,0.008,0,0.039227,-0.127486,-9.816457,0.0,0.0,0.0,-435,309,744,16.57,0.01,1,99,,1000,1000,1000,1000,0.02,0.02,0.024,0,0,0,831,0.0214,0.0015,0.015,0.0011,784.574,45.34,-180.0,0.0,0.0,2026-09-29T17:13:33.631Z,0.002,5.694,0,541.9,0.0,0.0,0.0,0.0,2026-09-29T17:13:33.635Z,0.2,2026-09-29T17:13:33.632Z,3.3,2026-09-29T17:13:33.633Z,2.6,1,-13,-1001,0,0,0,2026-09-29T17:13:33.583Z,52.7,2026-09-29T17:13:33.484Z,150.8,2026-09-29T17:13:33.581Z,54.0,1790702012983675,372593,2026-09-29T17:13:32.891Z,743.8,,,,0,,,1,2026-09-29T17:13:33.583Z,52.2,16.562,0.0,99,31.6,0.0,0,1198652463,2026-09-29T17:13:33.483Z,151.9,5.252,0.014,1,2026-09-29T17:13:32.891Z,744.6,,,,,,,,,,,,,,,,,,,90,2164.18,2026-09-29T17:13:33.582Z,53.6,0,0,0,0,2026-09-29T17:13:33.582Z,53.1,1508,1514,1529,1493,255,2026-09-29T17:13:33.484Z,151.2,0.0,0.0,0.0,0.0,0.0,2026-09-29T17:13:33.484Z,151.6,2026-09-29T17:13:32.891Z,744.2,2026-09-29T17:13:33.489Z,146.5,2026-09-29T17:13:33.488Z,146.8,2026-09-29T17:13:33.488Z,147.2,2026-09-29T17:13:32.892Z,743.3
2026-09-29T17:13:33.688Z,2026-09-29T17:13:33.781Z,2026-09-29T11:13:33.781-06:00,1.65,33,False,POSHOLD,1,0,-0.307678,0.744845,90.413886,0.006875,0.014324,0.028648,39.0187732,-104.8936034,2164.18,0.585,0.0,0.0,0.0,90.41,-0.011,0.0,39.0187732,-104.8936034,2165.89,0.01,7.12,31,6,0.68,1.25,0.003,0.008,0.008,0,0.039227,-0.11768,-9.816457,0.0,0.0,0.0,-435,309,744,16.565,0.01,1,99,,1000,1000,1000,1000,0.02,0.02,0.024,0,0,0,831,0.0214,0.0015,0.015,0.0011,784.574,45.34,-180.0,0.0,0.0,2026-09-29T17:13:33.681Z,0.002,8.437,0,591.9,0.0,0.0,0.0,0.0,2026-09-29T17:13:33.635Z,53.0,2026-09-29T17:13:33.685Z,2.6,2026-09-29T17:13:33.686Z,2.0,1,-12,-1000,0,0,0,2026-09-29T17:13:33.683Z,5.5,2026-09-29T17:13:33.684Z,3.6,2026-09-29T17:13:33.681Z,6.8,1790702012983675,372593,2026-09-29T17:13:32.891Z,796.6,,,,0,,,1,2026-09-29T17:13:33.683Z,5.0,16.565,0.01,99,31.8,0.0,0,1198652463,2026-09-29T17:13:33.683Z,4.7,5.252,0.014,1,2026-09-29T17:13:32.891Z,797.4,,,,,,,,,,,,,,,,,,,90,2164.18,2026-09-29T17:13:33.682Z,6.4,0,0,0,0,2026-09-29T17:13:33.682Z,5.9,1508,1514,1529,1493,255,2026-09-29T17:13:33.684Z,3.9,0.0,0.0,0.0,0.0,0.0,2026-09-29T17:13:33.684Z,4.3,2026-09-29T17:13:32.891Z,797.0,2026-09-29T17:13:33.489Z,199.3,2026-09-29T17:13:33.488Z,199.7,2026-09-29T17:13:33.488Z,200.0,2026-09-29T17:13:32.892Z,796.1
2026-09-29T17:13:33.735Z,2026-09-29T17:13:33.828Z,2026-09-29T11:13:33.828-06:00,1.7,34,False,POSHOLD,1,0,-0.307678,0.744272,90.413886,0.014324,-0.006303,0.002292,39.0187732,-104.8936034,2164.18,0.585,0.0,0.0,0.0,90.41,-0.011,0.0,39.0187732,-104.8936034,2165.89,0.01,7.12,31,6,0.68,1.25,0.003,0.008,0.008,0,0.049033,-0.127486,-9.80665,0.0,0.0,0.0,-433,310,739,16.565,0.01,1,99,,1000,1000,1000,1000,0.02,0.02,0.024,0,0,0,831,0.0214,0.0015,0.015,0.0011,784.574,45.34,-180.0,0.0,0.0,2026-09-29T17:13:33.731Z,0.002,5.286,0,641.9,0.0,0.0,4.0,4.0,2026-09-29T17:13:33.734Z,0.7,2026-09-29T17:13:33.732Z,2.9,2026-09-29T17:13:33.733Z,2.3,1,-12,-1000,0,0,0,2026-09-29T17:13:33.683Z,52.3,2026-09-29T17:13:33.684Z,50.4,2026-09-29T17:13:33.681Z,53.5,1790702012983675,372593,2026-09-29T17:13:32.891Z,843.4,,,,0,,,1,2026-09-29T17:13:33.683Z,51.8,16.565,0.01,99,31.8,0.0,0,1198652463,2026-09-29T17:13:33.683Z,51.5,5.252,0.014,1,2026-09-29T17:13:32.891Z,844.2,,,,,,,,,,,,,,,,,,,90,2164.18,2026-09-29T17:13:33.682Z,53.2,0,0,0,0,2026-09-29T17:13:33.682Z,52.7,1508,1514,1529,1493,255,2026-09-29T17:13:33.684Z,50.7,0.0,0.0,0.0,0.0,0.0,2026-09-29T17:13:33.684Z,51.1,2026-09-29T17:13:32.891Z,843.8,2026-09-29T17:13:33.489Z,246.1,2026-09-29T17:13:33.488Z,246.4,2026-09-29T17:13:33.488Z,246.8,2026-09-29T17:13:32.892Z,842.9
2026-09-29T17:13:33.786Z,2026-09-29T17:13:33.879Z,2026-09-29T11:13:33.879-06:00,1.75,35,False,POSHOLD,1,0,-0.307105,0.744272,90.414459,0.026356,-0.004011,0.033232,39.0187732,-104.8936034,2164.18,0.584,0.0,0.0,0.0,90.41,-0.011,0.0,39.0187732,-104.8936034,2165.89,0.01,7.12,31,6,0.68,1.25,0.003,0.008,0.008,0,0.039227,-0.107873,-9.816457,0.0,0.0,0.0,-433,310,739,16.563,0.01,1,99,,1000,1000,1000,1000,0.02,0.02,0.024,0,0,0,831,0.0214,0.0015,0.015,0.0011,784.574,45.34,-180.0,0.0,0.0,2026-09-29T17:13:33.781Z,0.002,6.997,0,691.9,0.0,0.0,4.0,4.0,2026-09-29T17:13:33.734Z,52.4,2026-09-29T17:13:33.784Z,2.6,2026-09-29T17:13:33.785Z,1.9,1,-13,-1000,0,0,0,2026-09-29T17:13:33.782Z,4.1,2026-09-29T17:13:33.684Z,102.1,2026-09-29T17:13:33.781Z,5.3,1790702012983675,372593,2026-09-29T17:13:32.891Z,895.1,,,,0,,,1,2026-09-29T17:13:33.783Z,3.6,16.565,0.01,99,31.8,0.0,0,1198652463,2026-09-29T17:13:33.683Z,103.2,5.252,0.014,1,2026-09-29T17:13:32.891Z,895.9,,,,,,,,,,,,,,,,,,,90,2164.18,2026-09-29T17:13:33.782Z,5.0,0,0,0,0,2026-09-29T17:13:33.782Z,4.5,1508,1514,1529,1493,255,2026-09-29T17:13:33.684Z,102.4,0.0,0.0,0.0,0.0,0.0,2026-09-29T17:13:33.684Z,102.8,2026-09-29T17:13:32.891Z,895.5,2026-09-29T17:13:33.489Z,297.8,2026-09-29T17:13:33.488Z,298.2,2026-09-29T17:13:33.488Z,298.5,2026-09-29T17:13:32.892Z,894.6
2026-09-29T17:13:33.835Z,2026-09-29T17:13:33.928Z,2026-09-29T11:13:33.928-06:00,1.8,36,False,POSHOLD,1,0,-0.308251,0.744845,90.415605,0.00974,-0.007448,0.013751,39.0187732,-104.8936034,2164.18,0.584,0.0,0.0,0.0,90.41,-0.011,0.0,39.0187732,-104.8936034,2165.89,0.01,7.12,31,6,0.68,1.25,0.003,0.008,0.008,0,0.049033,-0.127486,-9.816457,0.0,0.0,0.0,-435,302,747,16.563,0.01,1,99,,1000,1000,1000,1000,0.02,0.02,0.024,0,0,0,831,0.0214,0.0015,0.015,0.0011,784.574,45.34,-180.0,0.0,0.0,2026-09-29T17:13:33.831Z,0.002,5.273,0,741.9,0.0,16.0,89.0,3.0,2026-09-29T17:13:33.831Z,3.6,2026-09-29T17:13:33.832Z,2.6,2026-09-29T17:13:33.833Z,1.9,1,-13,-1000,0,0,0,2026-09-29T17:13:33.782Z,52.3,2026-09-29T17:13:33.684Z,150.4,2026-09-29T17:13:33.781Z,53.6,1790702012983675,372593,2026-09-29T17:13:32.891Z,943.4,,,,0,,,1,2026-09-29T17:13:33.783Z,51.9,16.565,0.01,99,31.8,0.0,0,1198652463,2026-09-29T17:13:33.683Z,151.5,5.252,0.014,1,2026-09-29T17:13:32.891Z,944.2,,,,,,,,,,,,,,,,,,,90,2164.18,2026-09-29T17:13:33.782Z,53.2,0,0,0,0,2026-09-29T17:13:33.782Z,52.8,1508,1514,1529,1493,255,2026-09-29T17:13:33.684Z,150.7,0.0,0.0,0.0,0.0,0.0,2026-09-29T17:13:33.684Z,151.1,2026-09-29T17:13:32.891Z,943.8,2026-09-29T17:13:33.489Z,346.1,2026-09-29T17:13:33.488Z,346.4,2026-09-29T17:13:33.488Z,346.8,2026-09-29T17:13:32.892Z,942.9
2026-09-29T17:13:33.889Z,2026-09-29T17:13:33.982Z,2026-09-29T11:13:33.982-06:00,1.85,37,False,POSHOLD,1,0,-0.309397,0.742553,90.415032,-0.033805,-0.01547,-0.006875,39.0187732,-104.8936034,2164.18,0.581,0.0,0.0,0.0,90.41,-0.011,0.0,39.0187732,-104.8936034,2165.88,0.0,200.55,31,6,0.68,1.25,0.003,0.008,0.007,0,0.02942,-0.11768,-9.80665,0.0,0.0,0.0,-435,302,747,16.569,0.01,1,99,,1000,1000,1000,1000,0.02,0.02,0.024,0,0,0,831,0.0214,0.0015,0.015,0.0011,784.574,45.34,-180.0,0.0,0.0,2026-09-29T17:13:33.881Z,0.002,9.673,0,791.9,0.0,16.0,89.0,3.0,2026-09-29T17:13:33.831Z,58.0,2026-09-29T17:13:33.885Z,3.9,2026-09-29T17:13:33.886Z,3.3,1,-13,-1000,0,0,0,2026-09-29T17:13:33.882Z,6.8,2026-09-29T17:13:33.884Z,4.9,2026-09-29T17:13:33.881Z,8.0,1790702013983656,373593,2026-09-29T17:13:33.889Z,0.6,,,,0,,,1,2026-09-29T17:13:33.883Z,6.3,16.569,0.01,99,31.9,0.0,0,1198652463,2026-09-29T17:13:33.883Z,6.0,5.243,0.007,1,2026-09-29T17:13:33.888Z,1.2,,,,,,,,,,,,,,,,,,,90,2164.18,2026-09-29T17:13:33.882Z,7.7,0,0,0,0,2026-09-29T17:13:33.882Z,7.2,1508,1514,1529,1493,255,2026-09-29T17:13:33.884Z,5.2,0.0,0.0,0.0,0.0,0.0,2026-09-29T17:13:33.884Z,5.6,2026-09-29T17:13:33.888Z,0.9,2026-09-29T17:13:33.489Z,400.6,2026-09-29T17:13:33.488Z,400.9,2026-09-29T17:13:33.488Z,401.2,2026-09-29T17:13:33.889Z,0.2
2026-09-29T17:13:33.934Z,2026-09-29T17:13:34.027Z,2026-09-29T11:13:34.027-06:00,1.9,38,False,POSHOLD,1,0,-0.309397,0.74198,90.415605,0.02521,-0.014324,0.014897,39.0187732,-104.8936034,2164.18,0.581,0.0,0.0,0.0,90.41,-0.011,0.0,39.0187732,-104.8936034,2165.88,0.0,200.55,31,6,0.68,1.25,0.003,0.008,0.007,0,0.039227,-0.127486,-9.816457,0.0,0.0,0.0,-438,310,739,16.569,0.01,1,99,,1000,1000,1000,1000,0.02,0.02,0.024,0,0,0,831,0.0214,0.0015,0.015,0.0011,784.574,45.34,-180.0,0.0,0.0,2026-09-29T17:13:33.931Z,0.001,4.95,0,841.9,0.0,16.0,89.0,3.0,2026-09-29T17:13:33.831Z,103.3,2026-09-29T17:13:33.932Z,2.6,2026-09-29T17:13:33.933Z,1.9,1,-13,-1000,0,0,0,2026-09-29T17:13:33.882Z,52.0,2026-09-29T17:13:33.884Z,50.1,2026-09-29T17:13:33.881Z,53.3,1790702013983656,373593,2026-09-29T17:13:33.889Z,45.8,,,,0,,,1,2026-09-29T17:13:33.883Z,51.5,16.569,0.01,99,31.9,0.0,0,1198652463,2026-09-29T17:13:33.883Z,51.2,5.243,0.007,1,2026-09-29T17:13:33.888Z,46.4,,,,,,,,,,,,,,,,,,,90,2164.18,2026-09-29T17:13:33.882Z,52.9,0,0,0,0,2026-09-29T17:13:33.882Z,52.4,1508,1514,1529,1493,255,2026-09-29T17:13:33.884Z,50.5,0.0,0.0,0.0,0.0,0.0,2026-09-29T17:13:33.884Z,50.8,2026-09-29T17:13:33.888Z,46.1,2026-09-29T17:13:33.489Z,445.8,2026-09-29T17:13:33.488Z,446.1,2026-09-29T17:13:33.488Z,446.4,2026-09-29T17:13:33.889Z,45.5
2026-09-29T17:13:33.987Z,2026-09-29T17:13:34.080Z,2026-09-29T11:13:34.080-06:00,1.95,39,False,POSHOLD,1,0,-0.30997,0.742553,90.416178,0.013178,0.00974,0.021772,39.0187732,-104.8936034,2164.17,0.578,0.0,0.0,0.0,90.41,-0.011,0.0,39.0187732,-104.8936034,2165.88,0.0,200.55,31,6,0.68,1.25,0.003,0.007,0.006,0,0.039227,-0.11768,-9.80665,0.0,0.0,0.0,-438,310,739,16.568,0.01,1,99,,1000,1000,1000,1000,0.022,0.02,0.023,0,0,0,831,0.0104,0.0005,0.0147,0.0012,784.61,45.33,-180.0,0.0,0.0,2026-09-29T17:13:33.981Z,0.002,7.982,0,891.9,0.0,16.0,89.0,3.0,2026-09-29T17:13:33.831Z,156.3,2026-09-29T17:13:33.984Z,3.5,2026-09-29T17:13:33.985Z,2.9,0,-12,-1000,0,0,0,2026-09-29T17:13:33.982Z,5.0,2026-09-29T17:13:33.884Z,103.1,2026-09-29T17:13:33.981Z,6.3,1790702013983656,373593,2026-09-29T17:13:33.889Z,98.8,,,,0,,,1,2026-09-29T17:13:33.983Z,4.6,16.569,0.01,99,31.9,0.0,0,1198652463,2026-09-29T17:13:33.883Z,104.2,5.243,0.007,1,2026-09-29T17:13:33.888Z,99.5,,,,,,,,,,,,,,,,,,,90,2164.17,2026-09-29T17:13:33.982Z,5.9,0,0,0,0,2026-09-29T17:13:33.982Z,5.4,1508,1514,1529,1493,255,2026-09-29T17:13:33.884Z,103.5,0.0,0.0,0.0,0.0,0.0,2026-09-29T17:13:33.884Z,103.9,2026-09-29T17:13:33.888Z,99.1,2026-09-29T17:13:33.987Z,0.2,2026-09-29T17:13:33.987Z,0.6,2026-09-29T17:13:33.987Z,0.9,2026-09-29T17:13:33.889Z,98.5
2026-09-29T17:13:34.034Z,2026-09-29T17:13:34.127Z,2026-09-29T11:13:34.127-06:00,2.0,40,False,POSHOLD,1,0,-0.30997,0.74198,90.417897,0.010313,-0.010313,0.020054,39.0187732,-104.8936034,2164.17,0.578,0.0,0.0,0.0,90.41,-0.011,0.0,39.0187732,-104.8936034,2165.88,0.0,200.55,31,6,0.68,1.25,0.003,0.007,0.006,0,0.039227,-0.127486,-9.816457,0.0,0.0,0.0,-434,303,751,16.568,0.01,1,99,,1000,1000,1000,1000,0.022,0.02,0.023,0,0,0,831,0.0104,0.0005,0.0147,0.0012,784.61,45.33,-180.0,0.0,0.0,2026-09-29T17:13:34.031Z,0.002,5.027,0,941.9,0.0,16.0,89.0,3.0,2026-09-29T17:13:33.831Z,203.3,2026-09-29T17:13:34.032Z,2.6,2026-09-29T17:13:34.033Z,1.9,0,-12,-1000,0,0,0,2026-09-29T17:13:33.982Z,52.1,2026-09-29T17:13:33.884Z,150.2,2026-09-29T17:13:33.981Z,53.3,1790702013983656,373593,2026-09-29T17:13:33.889Z,145.9,,,,0,,,1,2026-09-29T17:13:33.983Z,51.6,16.569,0.01,99,31.9,0.0,0,1198652463,2026-09-29T17:13:33.883Z,151.3,5.243,0.007,1,2026-09-29T17:13:33.888Z,146.5,,,,,,,,,,,,,,,,,,,90,2164.17,2026-09-29T17:13:33.982Z,53.0,0,0,0,0,2026-09-29T17:13:33.982Z,52.5,1508,1514,1529,1493,255,2026-09-29T17:13:33.884Z,150.5,0.0,0.0,0.0,0.0,0.0,2026-09-29T17:13:33.884Z,150.9,2026-09-29T17:13:33.888Z,146.2,2026-09-29T17:13:33.987Z,47.3,2026-09-29T17:13:33.987Z,47.6,2026-09-29T17:13:33.987Z,47.9,2026-09-29T17:13:33.889Z,145.6
2026-09-29T17:13:34.088Z,2026-09-29T17:13:34.181Z,2026-09-29T11:13:34.181-06:00,2.05,41,False,POSHOLD,1,0,-0.30997,0.74198,90.417897,-0.001719,0.008594,0.010313,39.0187732,-104.8936034,2164.17,0.576,0.0,0.0,0.0,90.41,-0.011,0.0,39.0187732,-104.8936034,2165.88,0.01,135.0,31,6,0.68,1.25,0.003,0.006,0.006,0,0.039227,-0.127486,-9.80665,0.0,0.0,0.0,-434,303,751,16.558,0.01,1,99,,1000,1000,1000,1000,0.022,0.02,0.023,0,0,0,831,0.0104,0.0005,0.0147,0.0012,784.61,45.33,-180.0,0.0,0.0,2026-09-29T17:13:34.081Z,0.002,8.411,0,991.9,0.0,16.0,89.0,3.0,2026-09-29T17:13:33.831Z,256.8,2026-09-29T17:13:34.085Z,2.6,2026-09-29T17:13:34.086Z,2.0,1,-12,-1000,0,0,0,2026-09-29T17:13:34.082Z,5.5,2026-09-29T17:13:34.084Z,3.6,2026-09-29T17:13:34.081Z,6.8,1790702013983656,373593,2026-09-29T17:13:33.889Z,199.3,,,,0,,,1,2026-09-29T17:13:34.083Z,5.0,16.558,0.01,99,31.6,0.0,0,1198652463,2026-09-29T17:13:34.083Z,4.7,5.243,0.007,1,2026-09-29T17:13:33.888Z,199.9,,,,,,,,,,,,,,,,,,,90,2164.17,2026-09-29T17:13:34.082Z,6.4,0,0,0,0,2026-09-29T17:13:34.082Z,5.9,1508,1514,1529,1493,255,2026-09-29T17:13:34.084Z,4.0,0.0,0.0,0.0,0.0,0.0,2026-09-29T17:13:34.084Z,4.3,2026-09-29T17:13:33.888Z,199.6,2026-09-29T17:13:33.987Z,100.7,2026-09-29T17:13:33.987Z,101.0,2026-09-29T17:13:33.987Z,101.4,2026-09-29T17:13:33.889Z,199.0
2026-09-29T17:13:34.135Z,2026-09-29T17:13:34.228Z,2026-09-29T11:13:34.228-06:00,2.1,42,False,POSHOLD,1,0,-0.310543,0.740834,90.416751,0.006303,-0.017762,-0.004584,39.0187732,-104.8936034,2164.17,0.576,0.0,0.0,0.0,90.41,-0.011,0.0,39.0187732,-104.8936034,2165.88,0.01,135.0,31,6,0.68,1.25,0.003,0.006,0.006,0,0.02942,-0.127486,-9.80665,0.0,0.0,0.001,-432,307,735,16.558,0.01,1,99,,1000,1000,1000,1000,0.022,0.02,0.023,0,0,0,831,0.0104,0.0005,0.0147,0.0012,784.61,45.33,-180.0,0.0,0.0,2026-09-29T17:13:34.131Z,0.002,5.62,0,-4.3,0.0,16.0,89.0,3.0,2026-09-29T17:13:33.831Z,303.9,2026-09-29T17:13:34.132Z,3.2,2026-09-29T17:13:34.133Z,2.6,1,-12,-1000,0,0,0,2026-09-29T17:13:34.082Z,52.7,2026-09-29T17:13:34.084Z,50.7,2026-09-29T17:13:34.081Z,53.9,1790702013983656,373593,2026-09-29T17:13:33.889Z,246.4,,,,0,,,1,2026-09-29T17:13:34.083Z,52.2,16.558,0.01,99,31.6,0.0,0,1198652463,2026-09-29T17:13:34.083Z,51.9,5.243,0.007,1,2026-09-29T17:13:33.888Z,247.1,,,,,,,,,,,,,,,,,,,90,2164.17,2026-09-29T17:13:34.082Z,53.6,0,0,0,0,2026-09-29T17:13:34.082Z,53.1,1508,1514,1529,1493,255,2026-09-29T17:13:34.084Z,51.1,0.0,0.0,0.0,0.0,0.0,2026-09-29T17:13:34.084Z,51.5,2026-09-29T17:13:33.888Z,246.8,2026-09-29T17:13:33.987Z,147.9,2026-09-29T17:13:33.987Z,148.2,2026-09-29T17:13:33.987Z,148.5,2026-09-29T17:13:33.889Z,246.1
2026-09-29T17:13:34.186Z,2026-09-29T17:13:34.279Z,2026-09-29T11:13:34.279-06:00,2.15,43,False,POSHOLD,1,0,-0.30997,0.740834,90.416751,0.029221,0.007448,0.007448,39.0187732,-104.8936034,2164.17,0.573,0.0,0.0,0.0,90.41,-0.011,0.0,39.0187732,-104.8936034,2165.88,0.01,135.0,31,6,0.68,1.25,0.002,0.005,0.005,0,0.039227,-0.11768,-9.80665,0.0,0.0,0.0,-432,307,735,16.57,0.01,1,99,,1000,1000,1000,1000,0.022,0.02,0.023,0,0,0,831,0.0104,0.0005,0.0147,0.0012,784.61,45.33,-180.0,0.0,0.0,2026-09-29T17:13:34.181Z,0.002,7.028,0,45.7,0.0,16.0,89.0,3.0,2026-09-29T17:13:33.831Z,355.3,2026-09-29T17:13:34.184Z,2.6,2026-09-29T17:13:34.185Z,1.9,1,-13,-1000,0,0,0,2026-09-29T17:13:34.182Z,4.1,2026-09-29T17:13:34.084Z,102.2,2026-09-29T17:13:34.181Z,5.3,1790702013983656,373593,2026-09-29T17:13:33.889Z,297.9,,,,0,,,1,2026-09-29T17:13:34.183Z,3.6,16.558,0.01,99,31.6,0.0,0,1198652463,2026-09-29T17:13:34.083Z,103.3,5.243,0.007,1,2026-09-29T17:13:33.888Z,298.5,,,,,,,,,,,,,,,,,,,90,2164.17,2026-09-29T17:13:34.182Z,5.0,0,0,0,0,2026-09-29T17:13:34.182Z,4.5,1508,1514,1529,1493,255,2026-09-29T17:13:34.084Z,102.5,0.0,0.0,0.0,0.0,0.0,2026-09-29T17:13:34.084Z,102.9,2026-09-29T17:13:33.888Z,298.2,2026-09-29T17:13:33.987Z,199.3,2026-09-29T17:13:33.987Z,199.6,2026-09-29T17:13:33.987Z,199.9,2026-09-29T17:13:33.889Z,297.5
2026-09-29T17:13:34.234Z,2026-09-29T17:13:34.327Z,2026-09-29T11:13:34.327-06:00,2.2,44,False,POSHOLD,1,0,-0.310543,0.739689,90.417324,-0.020054,-0.036096,0.016616,39.0187732,-104.8936034,2164.17,0.573,0.0,0.0,0.0,90.41,-0.011,0.0,39.0187732,-104.8936034,2165.88,0.01,135.0,31,6,0.68,1.25,0.002,0.005,0.005,0,0.039227,-0.11768,-9.80665,0.0,0.0,0.0,-438,307,737,16.57,0.01,1,99,,1000,1000,1000,1000,0.022,0.02,0.023,0,0,0,831,0.0104,0.0005,0.0147,0.0012,784.61,45.33,-180.0,0.0,0.0,2026-09-29T17:13:34.231Z,0.002,5.009,0,95.7,0.0,16.0,89.0,3.0,2026-09-29T17:13:33.831Z,403.3,2026-09-29T17:13:34.232Z,2.6,2026-09-29T17:13:34.233Z,1.9,1,-13,-1000,0,0,0,2026-09-29T17:13:34.182Z,52.1,2026-09-29T17:13:34.084Z,150.2,2026-09-29T17:13:34.181Z,53.3,1790702013983656,373593,2026-09-29T17:13:33.889Z,345.9,,,,0,,,1,2026-09-29T17:13:34.183Z,51.6,16.558,0.01,99,31.6,0.0,0,1198652463,2026-09-29T17:13:34.083Z,151.3,5.243,0.007,1,2026-09-29T17:13:33.888Z,346.5,,,,,,,,,,,,,,,,,,,90,2164.17,2026-09-29T17:13:34.182Z,53.0,0,0,0,0,2026-09-29T17:13:34.182Z,52.5,1508,1514,1529,1493,255,2026-09-29T17:13:34.084Z,150.5,0.0,0.0,0.0,0.0,0.0,2026-09-29T17:13:34.084Z,150.9,2026-09-29T17:13:33.888Z,346.2,2026-09-29T17:13:33.987Z,247.3,2026-09-29T17:13:33.987Z,247.6,2026-09-29T17:13:33.987Z,247.9,2026-09-29T17:13:33.889Z,345.5
2026-09-29T17:13:34.288Z,2026-09-29T17:13:34.381Z,2026-09-29T11:13:34.381-06:00,2.25,45,False,POSHOLD,1,0,-0.310543,0.739689,90.41847,-0.021772,-0.008021,-0.001146,39.0187732,-104.8936033,2164.16,0.567,0.0,0.0,0.0,90.41,-0.011,0.009,39.0187732,-104.8936034,2165.89,0.01,59.74,31,6,0.68,1.25,0.002,0.004,0.003,0,0.039227,-0.127486,-9.816457,0.0,0.0,0.0,-438,307,737,16.564,0.01,1,99,,1000,1000,1000,1000,0.022,0.02,0.023,0,0,0,831,0.0104,0.0005,0.0147,0.0012,784.61,45.33,-180.0,0.0,0.0,2026-09-29T17:13:34.281Z,0.002,8.749,0,145.7,0.0,16.0,89.0,3.0,2026-09-29T17:13:33.831Z,457.1,2026-09-29T17:13:34.286Z,2.6,2026-09-29T17:13:34.286Z,2.0,2,-14,-1000,0,0,0,2026-09-29T17:13:34.282Z,5.9,2026-09-29T17:13:34.285Z,3.6,2026-09-29T17:13:34.281Z,7.1,1790702013983656,373593,2026-09-29T17:13:33.889Z,399.6,,,,0,,,1,2026-09-29T17:13:34.283Z,5.4,16.564,0.01,99,32.6,0.0,0,1198652463,2026-09-29T17:13:34.284Z,4.6,5.243,0.007,1,2026-09-29T17:13:33.888Z,400.3,,,,,,,,,,,,,,,,,,,90,2164.16,2026-09-29T17:13:34.282Z,6.8,0,0,0,0,2026-09-29T17:13:34.282Z,6.3,1508,1514,1529,1493,255,2026-09-29T17:13:34.284Z,3.9,0.0,0.0,0.0,0.0,0.0,2026-09-29T17:13:34.284Z,4.3,2026-09-29T17:13:33.888Z,399.9,2026-09-29T17:13:33.987Z,301.1,2026-09-29T17:13:33.987Z,301.4,2026-09-29T17:13:33.987Z,301.7,2026-09-29T17:13:33.889Z,399.3
2026-09-29T17:13:34.334Z,2026-09-29T17:13:34.427Z,2026-09-29T11:13:34.427-06:00,2.3,46,False,POSHOLD,1,0,-0.310543,0.738543,90.419616,-0.008021,-0.011459,0.026356,39.0187732,-104.8936033,2164.16,0.567,0.0,0.0,0.0,90.41,-0.011,0.009,39.0187732,-104.8936034,2165.89,0.01,59.74,31,6,0.68,1.25,0.002,0.004,0.003,0,0.039227,-0.127486,-9.80665,0.0,0.0,0.0,-434,313,746,16.564,0.01,1,99,,1000,1000,1000,1000,0.022,0.02,0.023,0,0,0,831,0.0104,0.0005,0.0147,0.0012,784.61,45.33,-180.0,0.0,0.0,2026-09-29T17:13:34.331Z,0.002,4.954,0,195.7,0.0,16.0,89.0,3.0,2026-09-29T17:13:33.831Z,503.3,2026-09-29T17:13:34.332Z,2.5,2026-09-29T17:13:34.333Z,1.9,2,-14,-1000,0,0,0,2026-09-29T17:13:34.282Z,52.0,2026-09-29T17:13:34.285Z,49.7,2026-09-29T17:13:34.281Z,53.3,1790702013983656,373593,2026-09-29T17:13:33.889Z,445.8,,,,0,,,1,2026-09-29T17:13:34.283Z,51.5,16.564,0.01,99,32.6,0.0,0,1198652463,2026-09-29T17:13:34.284Z,50.8,5.243,0.007,1,2026-09-29T17:13:33.888Z,446.4,,,,,,,,,,,,,,,,,,,90,2164.16,2026-09-29T17:13:34.282Z,52.9,0,0,0,0,2026-09-29T17:13:34.282Z,52.4,1508,1514,1529,1493,255,2026-09-29T17:13:34.284Z,50.1,0.0,0.0,0.0,0.0,0.0,2026-09-29T17:13:34.284Z,50.4,2026-09-29T17:13:33.888Z,446.1,2026-09-29T17:13:33.987Z,347.2,2026-09-29T17:13:33.987Z,347.5,2026-09-29T17:13:33.987Z,347.9,2026-09-29T17:13:33.889Z,445.5
2026-09-29T17:13:34.387Z,2026-09-29T17:13:34.480Z,2026-09-29T11:13:34.480-06:00,2.35,47,False,POSHOLD,1,0,-0.312262,0.738543,90.420189,-0.013178,-0.008021,0.018908,39.0187732,-104.8936033,2164.16,0.561,0.0,0.0,0.0,90.41,-0.011,0.009,39.0187732,-104.8936034,2165.89,0.01,59.74,31,6,0.68,1.25,0.002,0.003,0.002,0,0.02942,-0.127486,-9.816457,0.0,0.0,0.0,-434,313,746,16.568,0.01,1,99,,1000,1000,1000,1000,0.022,0.02,0.023,0,0,0,831,0.0104,0.0005,0.0147,0.0012,784.61,45.33,-180.0,0.0,0.0,2026-09-29T17:13:34.381Z,0.002,7.221,0,245.7,0.0,16.0,89.0,3.0,2026-09-29T17:13:33.831Z,555.4,2026-09-29T17:13:34.384Z,2.6,2026-09-29T17:13:34.385Z,1.9,1,-12,-999,0,0,0,2026-09-29T17:13:34.383Z,4.1,2026-09-29T17:13:34.285Z,101.9,2026-09-29T17:13:34.381Z,5.4,1790702013983656,373593,2026-09-29T17:13:33.889Z,497.9,,,,0,,,1,2026-09-29T17:13:34.383Z,3.6,16.564,0.01,99,32.6,0.0,0,1198652463,2026-09-29T17:13:34.284Z,102.9,5.243,0.007,1,2026-09-29T17:13:33.888Z,498.5,,,,,,,,,,,,,,,,,,,90,2164.16,2026-09-29T17:13:34.382Z,5.0,0,0,0,0,2026-09-29T17:13:34.382Z,4.5,1508,1514,1529,1493,255,2026-09-29T17:13:34.284Z,102.2,0.0,0.0,0.0,0.0,0.0,2026-09-29T17:13:34.284Z,102.6,2026-09-29T17:13:33.888Z,498.2,2026-09-29T17:13:33.987Z,399.3,2026-09-29T17:13:33.987Z,399.7,2026-09-29T17:13:33.987Z,400.0,2026-09-29T17:13:33.889Z,497.6
2026-09-29T17:13:34.434Z,2026-09-29T17:13:34.527Z,2026-09-29T11:13:34.527-06:00,2.4,48,False,POSHOLD,1,0,-0.312835,0.73797,90.420761,0.001146,0.018335,0.013178,39.0187732,-104.8936033,2164.16,0.561,0.0,0.0,0.0,90.41,-0.011,0.009,39.0187732,-104.8936034,2165.89,0.01,59.74,31,6,0.68,1.25,0.002,0.003,0.002,0,0.02942,-0.11768,-9.816457,0.0,0.0,0.0,-444,302,746,16.568,0.01,1,99,,1000,1000,1000,1000,0.022,0.02,0.023,0,0,0,831,0.0104,0.0005,0.0147,0.0012,784.61,45.33,-180.0,0.0,0.0,2026-09-29T17:13:34.431Z,0.002,4.99,0,295.7,0.0,16.0,89.0,3.0,2026-09-29T17:13:33.831Z,603.3,2026-09-29T17:13:34.432Z,2.6,2026-09-29T17:13:34.433Z,1.9,1,-12,-999,0,0,0,2026-09-29T17:13:34.383Z,52.0,2026-09-29T17:13:34.285Z,149.8,2026-09-29T17:13:34.381Z,53.3,1790702013983656,373593,2026-09-29T17:13:33.889Z,545.8,,,,0,,,1,2026-09-29T17:13:34.383Z,51.5,16.564,0.01,99,32.6,0.0,0,1198652463,2026-09-29T17:13:34.284Z,150.8,5.243,0.007,1,2026-09-29T17:13:33.888Z,546.5,,,,,,,,,,,,,,,,,,,90,2164.16,2026-09-29T17:13:34.382Z,52.9,0,0,0,0,2026-09-29T17:13:34.382Z,52.4,1508,1514,1529,1493,255,2026-09-29T17:13:34.284Z,150.1,0.0,0.0,0.0,0.0,0.0,2026-09-29T17:13:34.284Z,150.5,2026-09-29T17:13:33.888Z,546.1,2026-09-29T17:13:33.987Z,447.2,2026-09-29T17:13:33.987Z,447.6,2026-09-29T17:13:33.987Z,447.9,2026-09-29T17:13:33.889Z,545.5
2026-09-29T17:13:34.490Z,2026-09-29T17:13:34.583Z,2026-09-29T11:13:34.583-06:00,2.45,49,False,POSHOLD,1,0,-0.312835,0.73797,90.421334,0.00573,-0.002865,0.033232,39.0187732,-104.8936033,2164.15,0.555,0.0,0.0,0.0,90.42,-0.011,0.009,39.0187732,-104.8936034,2165.88,0.0,188.13,31,6,0.68,1.25,0.002,0.002,-0.0,0,0.039227,-0.127486,-9.816457,0.0,0.0,0.0,-444,302,746,16.563,0.01,1,99,,1000,1000,1000,1000,0.02,0.02,0.024,0,0,0,831,0.0028,0.001,0.0016,0.0005,784.565,45.34,-180.0,0.0,0.0,2026-09-29T17:13:34.481Z,0.002,10.398,0,345.7,0.0,16.0,89.0,3.0,2026-09-29T17:13:33.831Z,658.8,2026-09-29T17:13:34.486Z,4.1,2026-09-29T17:13:34.487Z,3.4,1,-12,-1000,0,0,0,2026-09-29T17:13:34.483Z,7.1,2026-09-29T17:13:34.485Z,5.2,2026-09-29T17:13:34.482Z,8.3,1790702013983656,373593,2026-09-29T17:13:33.889Z,601.3,,,,0,,,1,2026-09-29T17:13:34.483Z,6.6,16.563,0.01,99,31.3,0.0,0,1198652463,2026-09-29T17:13:34.484Z,6.2,5.243,0.007,1,2026-09-29T17:13:33.888Z,601.9,,,,,,,,,,,,,,,,,,,90,2164.15,2026-09-29T17:13:34.482Z,8.0,0,0,0,0,2026-09-29T17:13:34.482Z,7.5,1508,1514,1529,1493,255,2026-09-29T17:13:34.484Z,5.5,0.0,0.0,0.0,0.0,0.0,2026-09-29T17:13:34.484Z,5.9,2026-09-29T17:13:33.888Z,601.6,2026-09-29T17:13:34.489Z,0.6,2026-09-29T17:13:34.489Z,0.9,2026-09-29T17:13:34.489Z,1.3,2026-09-29T17:13:33.889Z,601.0
2026-09-29T17:13:34.534Z,2026-09-29T17:13:34.627Z,2026-09-29T11:13:34.627-06:00,2.5,50,False,POSHOLD,1,0,-0.312262,0.736824,90.42248,-0.011459,-0.022345,0.05042,39.0187732,-104.8936033,2164.15,0.555,0.0,0.0,0.0,90.42,-0.011,0.009,39.0187732,-104.8936034,2165.88,0.0,188.13,31,6,0.68,1.25,0.002,0.002,-0.0,0,0.039227,-0.127486,-9.816457,0.0,0.0,0.0,-443,305,748,16.563,0.01,1,99,,1000,1000,1000,1000,0.02,0.02,0.024,0,0,0,831,0.0028,0.001,0.0016,0.0005,784.565,45.34,-180.0,0.0,0.0,2026-09-29T17:13:34.531Z,0.001,4.984,0,395.7,0.0,16.0,89.0,3.0,2026-09-29T17:13:33.831Z,703.3,2026-09-29T17:13:34.532Z,2.6,2026-09-29T17:13:34.533Z,1.9,1,-12,-1000,0,0,0,2026-09-29T17:13:34.483Z,51.6,2026-09-29T17:13:34.485Z,49.7,2026-09-29T17:13:34.482Z,52.8,1790702013983656,373593,2026-09-29T17:13:33.889Z,645.8,,,,0,,,1,2026-09-29T17:13:34.483Z,51.1,16.563,0.01,99,31.3,0.0,0,1198652463,2026-09-29T17:13:34.484Z,50.8,5.243,0.007,1,2026-09-29T17:13:33.888Z,646.4,,,,,,,,,,,,,,,,,,,90,2164.15,2026-09-29T17:13:34.482Z,52.5,0,0,0,0,2026-09-29T17:13:34.482Z,52.0,1508,1514,1529,1493,255,2026-09-29T17:13:34.484Z,50.1,0.0,0.0,0.0,0.0,0.0,2026-09-29T17:13:34.484Z,50.4,2026-09-29T17:13:33.888Z,646.1,2026-09-29T17:13:34.489Z,45.1,2026-09-29T17:13:34.489Z,45.5,2026-09-29T17:13:34.489Z,45.8,2026-09-29T17:13:33.889Z,645.5
2026-09-29T17:13:34.586Z,2026-09-29T17:13:34.679Z,2026-09-29T11:13:34.679-06:00,2.55,51,False,POSHOLD,1,0,-0.311689,0.737397,90.421334,-0.002865,-0.001719,-0.001719,39.0187732,-104.8936033,2164.14,0.549,0.0,0.0,0.0,90.42,-0.011,0.009,39.0187732,-104.8936034,2165.88,0.0,188.13,31,6,0.68,1.25,0.002,0.002,-0.001,0,0.039227,-0.127486,-9.816457,0.0,0.0,0.0,-443,305,748,16.565,0.01,1,99,,1000,1000,1000,1000,0.02,0.02,0.024,0,0,0,831,0.0028,0.001,0.0016,0.0005,784.565,45.34,-180.0,0.0,0.0,2026-09-29T17:13:34.581Z,0.002,7.007,0,445.7,0.0,16.0,89.0,3.0,2026-09-29T17:13:33.831Z,755.3,2026-09-29T17:13:34.584Z,2.6,2026-09-29T17:13:34.585Z,1.9,2,-13,-1000,0,0,0,2026-09-29T17:13:34.582Z,4.1,2026-09-29T17:13:34.485Z,101.7,2026-09-29T17:13:34.581Z,5.3,1790702013983656,373593,2026-09-29T17:13:33.889Z,697.8,,,,0,,,1,2026-09-29T17:13:34.583Z,3.6,16.563,0.01,99,31.3,0.0,0,1198652463,2026-09-29T17:13:34.484Z,102.8,5.243,0.007,1,2026-09-29T17:13:33.888Z,698.5,,,,,,,,,,,,,,,,,,,90,2164.14,2026-09-29T17:13:34.582Z,5.0,0,0,0,0,2026-09-29T17:13:34.582Z,4.5,1508,1514,1529,1493,255,2026-09-29T17:13:34.484Z,102.1,0.0,0.0,0.0,0.0,0.0,2026-09-29T17:13:34.484Z,102.4,2026-09-29T17:13:33.888Z,698.2,2026-09-29T17:13:34.489Z,97.2,2026-09-29T17:13:34.489Z,97.5,2026-09-29T17:13:34.489Z,97.8,2026-09-29T17:13:33.889Z,697.5
2026-09-29T17:13:34.634Z,2026-09-29T17:13:34.727Z,2026-09-29T11:13:34.727-06:00,2.6,52,False,POSHOLD,1,0,-0.312262,0.737397,90.42248,-0.004011,-0.002292,0.010313,39.0187732,-104.8936033,2164.14,0.549,0.0,0.0,0.0,90.42,-0.011,0.009,39.0187732,-104.8936034,2165.88,0.0,188.13,31,6,0.68,1.25,0.002,0.002,-0.001,0,0.039227,-0.127486,-9.816457,0.0,0.0,0.0,-438,305,740,16.565,0.01,1,99,,1000,1000,1000,1000,0.02,0.02,0.024,0,0,0,831,0.0028,0.001,0.0016,0.0005,784.565,45.34,-180.0,0.0,0.0,2026-09-29T17:13:34.631Z,0.002,4.952,0,495.7,0.0,16.0,89.0,3.0,2026-09-29T17:13:33.831Z,803.3,2026-09-29T17:13:34.632Z,2.6,2026-09-29T17:13:34.633Z,1.9,2,-13,-1000,0,0,0,2026-09-29T17:13:34.582Z,52.0,2026-09-29T17:13:34.485Z,149.7,2026-09-29T17:13:34.581Z,53.3,1790702013983656,373593,2026-09-29T17:13:33.889Z,745.8,,,,0,,,1,2026-09-29T17:13:34.583Z,51.5,16.563,0.01,99,31.3,0.0,0,1198652463,2026-09-29T17:13:34.484Z,150.7,5.243,0.007,1,2026-09-29T17:13:33.888Z,746.4,,,,,,,,,,,,,,,,,,,90,2164.14,2026-09-29T17:13:34.582Z,52.9,0,0,0,0,2026-09-29T17:13:34.582Z,52.4,1508,1514,1529,1493,255,2026-09-29T17:13:34.484Z,150.0,0.0,0.0,0.0,0.0,0.0,2026-09-29T17:13:34.484Z,150.4,2026-09-29T17:13:33.888Z,746.1,2026-09-29T17:13:34.489Z,145.1,2026-09-29T17:13:34.489Z,145.4,2026-09-29T17:13:34.489Z,145.8,2026-09-29T17:13:33.889Z,745.5
2026-09-29T17:13:34.689Z,2026-09-29T17:13:34.782Z,2026-09-29T11:13:34.782-06:00,2.65,53,False,POSHOLD,1,0,-0.312835,0.736824,90.423626,-0.008021,-0.013751,0.036669,39.0187732,-104.8936033,2164.14,0.544,0.0,0.0,0.0,90.42,-0.011,0.009,39.0187732,-104.8936034,2165.88,0.01,196.69,31,6,0.68,1.25,0.002,0.003,-0.002,0,0.039227,-0.11768,-9.80665,0.0,0.0,0.0,-438,305,740,16.564,0.01,1,99,,1000,1000,1000,1000,0.02,0.02,0.024,0,0,0,831,0.0028,0.001,0.0016,0.0005,784.565,45.34,-180.0,0.0,0.0,2026-09-29T17:13:34.681Z,0.002,9.748,0,545.7,0.0,0.0,0.0,0.0,2026-09-29T17:13:34.689Z,0.2,2026-09-29T17:13:34.686Z,3.7,2026-09-29T17:13:34.686Z,3.1,1,-13,-1000,0,0,0,2026-09-29T17:13:34.682Z,6.9,2026-09-29T17:13:34.685Z,4.8,2026-09-29T17:13:34.681Z,8.1,1790702013983656,373593,2026-09-29T17:13:33.889Z,800.6,,,,0,,,1,2026-09-29T17:13:34.683Z,6.4,16.564,0.01,99,31.8,0.0,0,1198652463,2026-09-29T17:13:34.683Z,6.0,5.243,0.007,1,2026-09-29T17:13:33.888Z,801.3,,,,,,,,,,,,,,,,,,,90,2164.14,2026-09-29T17:13:34.682Z,7.8,0,0,0,0,2026-09-29T17:13:34.682Z,7.3,1508,1514,1529,1493,255,2026-09-29T17:13:34.684Z,5.1,0.0,0.0,0.0,0.0,0.0,2026-09-29T17:13:34.684Z,5.5,2026-09-29T17:13:33.888Z,800.9,2026-09-29T17:13:34.489Z,199.9,2026-09-29T17:13:34.489Z,200.3,2026-09-29T17:13:34.489Z,200.6,2026-09-29T17:13:33.889Z,800.3
2026-09-29T17:13:34.735Z,2026-09-29T17:13:34.828Z,2026-09-29T11:13:34.828-06:00,2.7,54,False,POSHOLD,1,0,-0.312835,0.73797,90.424772,-0.013178,0.00974,0.032659,39.0187732,-104.8936033,2164.14,0.544,0.0,0.0,0.0,90.42,-0.011,0.009,39.0187732,-104.8936034,2165.88,0.01,196.69,31,6,0.68,1.25,0.002,0.003,-0.002,0,0.039227,-0.127486,-9.796843,0.0,0.0,0.0,-438,302,744,16.564,0.01,1,99,,1000,1000,1000,1000,0.02,0.02,0.024,0,0,0,831,0.0028,0.001,0.0016,0.0005,784.565,45.34,-180.0,0.0,0.0,2026-09-29T17:13:34.731Z,0.002,5.356,0,595.7,0.0,0.0,4.0,4.0,2026-09-29T17:13:34.734Z,1.0,2026-09-29T17:13:34.732Z,2.9,2026-09-29T17:13:34.733Z,2.2,1,-13,-1000,0,0,0,2026-09-29T17:13:34.682Z,52.4,2026-09-29T17:13:34.685Z,50.3,2026-09-29T17:13:34.681Z,53.7,1790702013983656,373593,2026-09-29T17:13:33.889Z,846.2,,,,0,,,1,2026-09-29T17:13:34.683Z,51.9,16.564,0.01,99,31.8,0.0,0,1198652463,2026-09-29T17:13:34.683Z,51.5,5.243,0.007,1,2026-09-29T17:13:33.888Z,846.8,,,,,,,,,,,,,,,,,,,90,2164.14,2026-09-29T17:13:34.682Z,53.3,0,0,0,0,2026-09-29T17:13:34.682Z,52.8,1508,1514,1529,1493,255,2026-09-29T17:13:34.684Z,50.7,0.0,0.0,0.0,0.0,0.0,2026-09-29T17:13:34.684Z,51.1,2026-09-29T17:13:33.888Z,846.5,2026-09-29T17:13:34.489Z,245.5,2026-09-29T17:13:34.489Z,245.8,2026-09-29T17:13:34.489Z,246.1,2026-09-29T17:13:33.889Z,845.9
2026-09-29T17:13:34.786Z,2026-09-29T17:13:34.879Z,2026-09-29T11:13:34.879-06:00,2.75,55,False,POSHOLD,1,0,-0.312262,0.738543,90.424772,-0.002292,0.006875,-0.004011,39.0187732,-104.8936033,2164.14,0.54,0.0,0.0,0.0,90.42,-0.011,0.009,39.0187732,-104.8936034,2165.88,0.01,196.69,31,6,0.68,1.25,0.002,0.004,-0.003,0,0.039227,-0.127486,-9.816457,0.0,0.0,0.0,-438,302,744,16.574,0.01,1,99,,1000,1000,1000,1000,0.02,0.02,0.024,0,0,0,831,0.0028,0.001,0.0016,0.0005,784.565,45.34,-180.0,0.0,0.0,2026-09-29T17:13:34.781Z,0.002,7.011,0,645.7,0.0,0.0,4.0,4.0,2026-09-29T17:13:34.734Z,52.7,2026-09-29T17:13:34.784Z,2.6,2026-09-29T17:13:34.785Z,1.9,2,-13,-999,0,0,0,2026-09-29T17:13:34.782Z,4.1,2026-09-29T17:13:34.685Z,102.0,2026-09-29T17:13:34.781Z,5.3,1790702013983656,373593,2026-09-29T17:13:33.889Z,897.8,,,,0,,,1,2026-09-29T17:13:34.783Z,3.6,16.564,0.01,99,31.8,0.0,0,1198652463,2026-09-29T17:13:34.683Z,103.2,5.243,0.007,1,2026-09-29T17:13:33.888Z,898.5,,,,,,,,,,,,,,,,,,,90,2164.14,2026-09-29T17:13:34.782Z,5.0,0,0,0,0,2026-09-29T17:13:34.782Z,4.5,1508,1514,1529,1493,255,2026-09-29T17:13:34.684Z,102.4,0.0,0.0,0.0,0.0,0.0,2026-09-29T17:13:34.684Z,102.8,2026-09-29T17:13:33.888Z,898.2,2026-09-29T17:13:34.489Z,297.2,2026-09-29T17:13:34.489Z,297.5,2026-09-29T17:13:34.489Z,297.8,2026-09-29T17:13:33.889Z,897.5
2026-09-29T17:13:34.836Z,2026-09-29T17:13:34.929Z,2026-09-29T11:13:34.929-06:00,2.8,56,False,POSHOLD,1,0,-0.312262,0.738543,90.425345,0.001146,0.00974,0.011459,39.0187732,-104.8936033,2164.14,0.54,0.0,0.0,0.0,90.42,-0.011,0.009,39.0187732,-104.8936034,2165.88,0.01,196.69,31,6,0.68,1.25,0.002,0.004,-0.003,0,0.039227,-0.11768,-9.80665,0.0,0.0,0.0,-436,305,733,16.574,0.01,1,99,,1000,1000,1000,1000,0.02,0.02,0.024,0,0,0,831,0.0028,0.001,0.0016,0.0005,784.565,45.34,-180.0,0.0,0.0,2026-09-29T17:13:34.831Z,0.003,7.426,0,695.7,0.0,16.0,89.0,3.0,2026-09-29T17:13:34.831Z,5.2,2026-09-29T17:13:34.833Z,3.7,2026-09-29T17:13:34.834Z,2.8,2,-13,-999,0,0,0,2026-09-29T17:13:34.782Z,54.1,2026-09-29T17:13:34.685Z,152.0,2026-09-29T17:13:34.781Z,55.4,1790702013983656,373593,2026-09-29T17:13:33.889Z,947.9,,,,0,,,1,2026-09-29T17:13:34.783Z,53.7,16.564,0.01,99,31.8,0.0,0,1198652463,2026-09-29T17:13:34.683Z,153.3,5.243,0.007,1,2026-09-29T17:13:33.888Z,948.5,,,,,,,,,,,,,,,,,,,90,2164.14,2026-09-29T17:13:34.782Z,55.0,0,0,0,0,2026-09-29T17:13:34.782Z,54.5,1508,1514,1529,1493,255,2026-09-29T17:13:34.684Z,152.4,0.0,0.0,0.0,0.0,0.0,2026-09-29T17:13:34.684Z,152.8,2026-09-29T17:13:33.888Z,948.2,2026-09-29T17:13:34.489Z,347.2,2026-09-29T17:13:34.489Z,347.5,2026-09-29T17:13:34.489Z,347.9,2026-09-29T17:13:33.889Z,947.6
2026-09-29T17:13:34.893Z,2026-09-29T17:13:34.986Z,2026-09-29T11:13:34.986-06:00,2.85,57,False,POSHOLD,1,0,-0.312262,0.738543,90.424199,-0.002865,0.000573,-0.001719,39.0187732,-104.8936033,2164.13,0.536,0.0,0.0,0.0,90.42,-0.011,0.009,39.0187733,-104.8936034,2165.88,0.0,116.56,31,6,0.68,1.25,0.002,0.004,-0.004,0,0.039227,-0.127486,-9.796843,0.0,0.0,0.0,-436,305,733,16.569,0.01,1,99,,1000,1000,1000,1000,0.02,0.02,0.024,0,0,0,831,0.0028,0.001,0.0016,0.0005,784.565,45.34,-180.0,0.0,0.0,2026-09-29T17:13:34.881Z,0.003,13.652,0,745.7,0.0,16.0,89.0,3.0,2026-09-29T17:13:34.831Z,61.4,2026-09-29T17:13:34.887Z,5.6,2026-09-29T17:13:34.888Z,4.7,1,-14,-1000,0,0,0,2026-09-29T17:13:34.883Z,9.7,2026-09-29T17:13:34.886Z,7.0,2026-09-29T17:13:34.881Z,11.4,1790702014983750,374593,2026-09-29T17:13:34.892Z,0.8,,,,0,,,1,2026-09-29T17:13:34.884Z,8.9,16.569,0.01,99,32.0,0.0,0,1198652463,2026-09-29T17:13:34.884Z,8.4,5.239,0.021,1,2026-09-29T17:13:34.891Z,1.8,,,,,,,,,,,,,,,,,,,90,2164.13,2026-09-29T17:13:34.882Z,10.9,0,0,0,0,2026-09-29T17:13:34.883Z,10.2,1508,1514,1529,1493,255,2026-09-29T17:13:34.885Z,7.5,0.0,0.0,0.0,0.0,0.0,2026-09-29T17:13:34.885Z,8.0,2026-09-29T17:13:34.891Z,1.3,2026-09-29T17:13:34.489Z,403.4,2026-09-29T17:13:34.489Z,403.8,2026-09-29T17:13:34.489Z,404.1,2026-09-29T17:13:34.892Z,0.3
2026-09-29T17:13:34.936Z,2026-09-29T17:13:35.029Z,2026-09-29T11:13:35.029-06:00,2.9,58,False,POSHOLD,1,0,-0.313408,0.73797,90.423626,-0.033232,0.006303,-0.006303,39.0187732,-104.8936033,2164.13,0.536,0.0,0.0,0.0,90.42,-0.011,0.009,39.0187733,-104.8936034,2165.88,0.0,116.56,31,6,0.68,1.25,0.002,0.004,-0.004,0,0.02942,-0.127486,-9.80665,0.0,0.0,0.0,-435,309,751,16.569,0.01,1,99,,1000,1000,1000,1000,0.02,0.02,0.024,0,0,0,831,0.0028,0.001,0.0016,0.0005,784.565,45.34,-180.0,0.0,0.0,2026-09-29T17:13:34.931Z,0.002,6.898,0,795.7,0.0,16.0,89.0,3.0,2026-09-29T17:13:34.831Z,104.6,2026-09-29T17:13:34.932Z,3.7,2026-09-29T17:13:34.933Z,2.8,1,-14,-1000,0,0,0,2026-09-29T17:13:34.883Z,52.9,2026-09-29T17:13:34.886Z,50.2,2026-09-29T17:13:34.881Z,54.7,1790702014983750,374593,2026-09-29T17:13:34.892Z,44.0,,,,0,,,1,2026-09-29T17:13:34.884Z,52.2,16.569,0.01,99,32.0,0.0,0,1198652463,2026-09-29T17:13:34.884Z,51.7,5.239,0.021,1,2026-09-29T17:13:34.891Z,45.0,,,,,,,,,,,,,,,,,,,90,2164.13,2026-09-29T17:13:34.882Z,54.2,0,0,0,0,2026-09-29T17:13:34.883Z,53.5,1508,1514,1529,1493,255,2026-09-29T17:13:34.885Z,50.7,0.0,0.0,0.0,0.0,0.0,2026-09-29T17:13:34.885Z,51.2,2026-09-29T17:13:34.891Z,44.6,2026-09-29T17:13:34.489Z,446.7,2026-09-29T17:13:34.489Z,447.0,2026-09-29T17:13:34.489Z,447.3,2026-09-29T17:13:34.892Z,43.6
2026-09-29T17:13:34.990Z,2026-09-29T17:13:35.083Z,2026-09-29T11:13:35.083-06:00,2.95,59,False,POSHOLD,1,0,-0.313981,0.73797,90.423053,-0.010313,-0.011459,-0.012605,39.0187732,-104.8936033,2164.13,0.531,0.0,0.0,0.0,90.42,-0.011,0.009,39.0187733,-104.8936034,2165.88,0.0,116.56,31,6,0.68,1.25,0.002,0.005,-0.005,0,0.039227,-0.127486,-9.80665,0.0,0.0,0.0,-435,309,751,16.563,0.01,1,99,,1000,1000,1000,1000,0.021,0.023,0.022,0,0,0,831,0.0067,0.0042,0.0215,0.0029,784.591,45.34,-180.0,0.0,0.0,2026-09-29T17:13:34.981Z,0.003,11.531,0,845.7,0.0,16.0,89.0,3.0,2026-09-29T17:13:34.831Z,159.1,2026-09-29T17:13:34.985Z,5.1,2026-09-29T17:13:34.986Z,4.2,1,-13,-999,0,0,0,2026-09-29T17:13:34.983Z,7.2,2026-09-29T17:13:34.886Z,104.7,2026-09-29T17:13:34.981Z,9.0,1790702014983750,374593,2026-09-29T17:13:34.892Z,98.5,,,,0,,,1,2026-09-29T17:13:34.984Z,6.4,16.569,0.01,99,32.0,0.0,0,1198652463,2026-09-29T17:13:34.884Z,106.2,5.239,0.021,1,2026-09-29T17:13:34.891Z,99.5,,,,,,,,,,,,,,,,,,,90,2164.13,2026-09-29T17:13:34.982Z,8.5,0,0,0,0,2026-09-29T17:13:34.983Z,7.8,1508,1514,1529,1493,255,2026-09-29T17:13:34.885Z,105.2,0.0,0.0,0.0,0.0,0.0,2026-09-29T17:13:34.885Z,105.7,2026-09-29T17:13:34.891Z,99.1,2026-09-29T17:13:34.990Z,0.3,2026-09-29T17:13:34.990Z,0.8,2026-09-29T17:13:34.989Z,1.3,2026-09-29T17:13:34.892Z,98.1
2026-09-29T17:13:35.036Z,2026-09-29T17:13:35.129Z,2026-09-29T11:13:35.129-06:00,3.0,60,False,POSHOLD,1,0,-0.313981,0.73797,90.423053,-0.016616,0.007448,0.000573,39.0187732,-104.8936033,2164.13,0.531,0.0,0.0,0.0,90.42,-0.011,0.009,39.0187733,-104.8936034,2165.88,0.0,116.56,31,6,0.68,1.25,0.002,0.005,-0.005,0,0.039227,-0.127486,-9.80665,0.0,0.0,0.0,-437,306,749,16.563,0.01,1,99,,1000,1000,1000,1000,0.021,0.023,0.022,0,0,0,831,0.0067,0.0042,0.0215,0.0029,784.591,45.34,-180.0,0.0,0.0,2026-09-29T17:13:35.031Z,0.002,6.934,0,895.7,0.0,16.0,89.0,3.0,2026-09-29T17:13:34.831Z,204.7,2026-09-29T17:13:35.032Z,3.7,2026-09-29T17:13:35.033Z,2.8,1,-13,-999,0,0,0,2026-09-29T17:13:34.983Z,52.8,2026-09-29T17:13:34.886Z,150.3,2026-09-29T17:13:34.981Z,54.6,1790702014983750,374593,2026-09-29T17:13:34.892Z,144.1,,,,0,,,1,2026-09-29T17:13:34.984Z,52.0,16.569,0.01,99,32.0,0.0,0,1198652463,2026-09-29T17:13:34.884Z,151.7,5.239,0.021,1,2026-09-29T17:13:34.891Z,145.1,,,,,,,,,,,,,,,,,,,90,2164.13,2026-09-29T17:13:34.982Z,54.0,0,0,0,0,2026-09-29T17:13:34.983Z,53.4,1508,1514,1529,1493,255,2026-09-29T17:13:34.885Z,150.8,0.0,0.0,0.0,0.0,0.0,2026-09-29T17:13:34.885Z,151.3,2026-09-29T17:13:34.891Z,144.6,2026-09-29T17:13:34.990Z,45.9,2026-09-29T17:13:34.990Z,46.4,2026-09-29T17:13:34.989Z,46.8,2026-09-29T17:13:34.892Z,143.6
2026-09-29T17:13:35.091Z,2026-09-29T17:13:35.184Z,2026-09-29T11:13:35.184-06:00,3.05,61,False,POSHOLD,1,0,-0.313981,0.738543,90.423626,0.008594,0.012605,0.03094,39.0187732,-104.8936033,2164.12,0.526,0.0,0.0,0.0,90.42,-0.011,0.009,39.0187733,-104.8936034,2165.88,0.01,48.01,31,6,0.68,1.25,0.002,0.006,-0.006,0,0.039227,-0.127486,-9.816457,0.0,0.0,0.0,-437,306,749,16.568,0.01,1,99,,1000,1000,1000,1000,0.021,0.023,0.022,0,0,0,831,0.0067,0.0042,0.0215,0.0029,784.591,45.34,-180.0,0.0,0.0,2026-09-29T17:13:35.081Z,0.003,11.942,0,945.7,0.0,16.0,89.0,3.0,2026-09-29T17:13:34.831Z,259.5,2026-09-29T17:13:35.087Z,3.7,2026-09-29T17:13:35.088Z,2.7,1,-12,-1000,0,0,0,2026-09-29T17:13:35.083Z,7.8,2026-09-29T17:13:35.086Z,5.1,2026-09-29T17:13:35.081Z,9.5,1790702014983750,374593,2026-09-29T17:13:34.892Z,198.9,,,,0,,,1,2026-09-29T17:13:35.084Z,7.0,16.568,0.01,99,31.7,0.0,0,1198652463,2026-09-29T17:13:35.084Z,6.5,5.239,0.021,1,2026-09-29T17:13:34.891Z,199.9,,,,,,,,,,,,,,,,,,,90,2164.12,2026-09-29T17:13:35.082Z,9.0,0,0,0,0,2026-09-29T17:13:35.083Z,8.4,1508,1514,1529,1493,255,2026-09-29T17:13:35.085Z,5.6,0.0,0.0,0.0,0.0,0.0,2026-09-29T17:13:35.085Z,6.1,2026-09-29T17:13:34.891Z,199.4,2026-09-29T17:13:34.990Z,100.7,2026-09-29T17:13:34.990Z,101.2,2026-09-29T17:13:34.989Z,101.6,2026-09-29T17:13:34.892Z,198.4
2026-09-29T17:13:35.136Z,2026-09-29T17:13:35.229Z,2026-09-29T11:13:35.229-06:00,3.1,62,False,POSHOLD,1,0,-0.314554,0.73797,90.424199,-0.019481,-0.00974,-0.02521,39.0187732,-104.8936033,2164.12,0.526,0.0,0.0,0.0,90.42,-0.011,0.009,39.0187733,-104.8936034,2165.88,0.01,48.01,31,6,0.68,1.25,0.002,0.006,-0.006,0,0.02942,-0.137293,-9.80665,0.0,0.0,0.0,-430,302,736,16.568,0.01,1,99,,1000,1000,1000,1000,0.021,0.023,0.022,0,0,0,831,0.0067,0.0042,0.0215,0.0029,784.591,45.34,-180.0,0.0,0.0,2026-09-29T17:13:35.131Z,0.002,6.901,0,995.7,0.0,16.0,89.0,3.0,2026-09-29T17:13:34.831Z,304.6,2026-09-29T17:13:35.132Z,3.7,2026-09-29T17:13:35.133Z,2.8,1,-12,-1000,0,0,0,2026-09-29T17:13:35.083Z,52.9,2026-09-29T17:13:35.086Z,50.2,2026-09-29T17:13:35.081Z,54.7,1790702014983750,374593,2026-09-29T17:13:34.892Z,244.0,,,,0,,,1,2026-09-29T17:13:35.084Z,52.2,16.568,0.01,99,31.7,0.0,0,1198652463,2026-09-29T17:13:35.084Z,51.7,5.239,0.021,1,2026-09-29T17:13:34.891Z,245.0,,,,,,,,,,,,,,,,,,,90,2164.12,2026-09-29T17:13:35.082Z,54.2,0,0,0,0,2026-09-29T17:13:35.083Z,53.5,1508,1514,1529,1493,255,2026-09-29T17:13:35.085Z,50.7,0.0,0.0,0.0,0.0,0.0,2026-09-29T17:13:35.085Z,51.2,2026-09-29T17:13:34.891Z,244.6,2026-09-29T17:13:34.990Z,145.9,2026-09-29T17:13:34.990Z,146.3,2026-09-29T17:13:34.989Z,146.8,2026-09-29T17:13:34.892Z,243.6
2026-09-29T17:13:35.190Z,2026-09-29T17:13:35.283Z,2026-09-29T11:13:35.283-06:00,3.15,63,False,POSHOLD,1,0,-0.3157,0.737397,90.424199,0.002292,-0.02521,0.009167,39.0187732,-104.8936033,2164.12,0.523,0.0,0.0,0.0,90.42,-0.011,0.009,39.0187733,-104.8936034,2165.88,0.01,48.01,31,6,0.68,1.25,0.001,0.006,-0.006,0,0.02942,-0.127486,-9.796843,0.0,0.0,0.0,-430,302,736,16.571,0.02,1,99,,1000,1000,1000,1000,0.021,0.023,0.022,0,0,0,831,0.0067,0.0042,0.0215,0.0029,784.591,45.34,-180.0,0.0,0.0,2026-09-29T17:13:35.181Z,0.003,11.115,0,-9.2,0.0,16.0,89.0,3.0,2026-09-29T17:13:34.831Z,358.7,2026-09-29T17:13:35.185Z,4.9,2026-09-29T17:13:35.186Z,4.0,2,-13,-1000,0,0,0,2026-09-29T17:13:35.183Z,7.0,2026-09-29T17:13:35.086Z,104.3,2026-09-29T17:13:35.181Z,8.7,1790702014983750,374593,2026-09-29T17:13:34.892Z,298.1,,,,0,,,1,2026-09-29T17:13:35.184Z,6.2,16.568,0.01,99,31.7,0.0,0,1198652463,2026-09-29T17:13:35.084Z,105.7,5.239,0.021,1,2026-09-29T17:13:34.891Z,299.1,,,,,,,,,,,,,,,,,,,90,2164.12,2026-09-29T17:13:35.182Z,8.2,0,0,0,0,2026-09-29T17:13:35.183Z,7.6,1508,1514,1529,1493,255,2026-09-29T17:13:35.085Z,104.8,0.0,0.0,0.0,0.0,0.0,2026-09-29T17:13:35.085Z,105.3,2026-09-29T17:13:34.891Z,298.6,2026-09-29T17:13:34.990Z,199.9,2026-09-29T17:13:34.990Z,200.4,2026-09-29T17:13:34.989Z,200.8,2026-09-29T17:13:34.892Z,297.6
2026-09-29T17:13:35.236Z,2026-09-29T17:13:35.329Z,2026-09-29T11:13:35.329-06:00,3.2,64,False,POSHOLD,1,0,-0.3157,0.737397,90.424199,0.017189,-0.011459,0.000573,39.0187732,-104.8936033,2164.12,0.523,0.0,0.0,0.0,90.42,-0.011,0.009,39.0187733,-104.8936034,2165.88,0.01,48.01,31,6,0.68,1.25,0.001,0.006,-0.006,0,0.039227,-0.11768,-9.80665,0.0,0.0,0.0,-435,307,742,16.571,0.02,1,99,,1000,1000,1000,1000,0.021,0.023,0.022,0,0,0,831,0.0067,0.0042,0.0215,0.0029,784.591,45.34,-180.0,0.0,0.0,2026-09-29T17:13:35.231Z,0.003,6.91,0,40.8,0.0,16.0,89.0,3.0,2026-09-29T17:13:34.831Z,404.6,2026-09-29T17:13:35.232Z,3.7,2026-09-29T17:13:35.233Z,2.8,2,-13,-1000,0,0,0,2026-09-29T17:13:35.183Z,53.0,2026-09-29T17:13:35.086Z,150.2,2026-09-29T17:13:35.181Z,54.7,1790702014983750,374593,2026-09-29T17:13:34.892Z,344.1,,,,0,,,1,2026-09-29T17:13:35.184Z,52.2,16.568,0.01,99,31.7,0.0,0,1198652463,2026-09-29T17:13:35.084Z,151.7,5.239,0.021,1,2026-09-29T17:13:34.891Z,345.1,,,,,,,,,,,,,,,,,,,90,2164.12,2026-09-29T17:13:35.182Z,54.2,0,0,0,0,2026-09-29T17:13:35.183Z,53.5,1508,1514,1529,1493,255,2026-09-29T17:13:35.085Z,150.7,0.0,0.0,0.0,0.0,0.0,2026-09-29T17:13:35.085Z,151.2,2026-09-29T17:13:34.891Z,344.6,2026-09-29T17:13:34.990Z,245.9,2026-09-29T17:13:34.990Z,246.3,2026-09-29T17:13:34.989Z,246.8,2026-09-29T17:13:34.892Z,343.6
2026-09-29T17:13:35.291Z,2026-09-29T17:13:35.384Z,2026-09-29T11:13:35.384-06:00,3.25,65,False,POSHOLD,1,0,-0.317419,0.737397,90.423626,-0.032659,-0.018335,-0.039534,39.0187732,-104.8936033,2164.11,0.519,0.0,0.0,0.0,90.42,-0.011,0.009,39.0187733,-104.8936034,2165.89,0.0,203.19,31,6,0.68,1.25,0.001,0.007,-0.007,0,0.02942,-0.11768,-9.816457,0.0,0.0,0.0,-435,307,742,16.565,0.01,1,99,,1000,1000,1000,1000,0.021,0.023,0.022,0,0,0,831,0.0067,0.0042,0.0215,0.0029,784.591,45.34,-180.0,0.0,0.0,2026-09-29T17:13:35.281Z,0.002,11.854,0,90.8,0.0,16.0,89.0,3.0,2026-09-29T17:13:34.831Z,459.5,2026-09-29T17:13:35.287Z,3.8,2026-09-29T17:13:35.288Z,2.8,1,-12,-1000,0,0,0,2026-09-29T17:13:35.283Z,7.8,2026-09-29T17:13:35.286Z,5.1,2026-09-29T17:13:35.281Z,9.5,1790702014983750,374593,2026-09-29T17:13:34.892Z,398.9,,,,0,,,1,2026-09-29T17:13:35.284Z,7.1,16.565,0.01,99,32.2,0.0,0,1198652463,2026-09-29T17:13:35.284Z,6.6,5.239,0.021,1,2026-09-29T17:13:34.891Z,399.9,,,,,,,,,,,,,,,,,,,90,2164.11,2026-09-29T17:13:35.282Z,9.1,0,0,0,0,2026-09-29T17:13:35.283Z,8.4,1508,1514,1529,1493,255,2026-09-29T17:13:35.285Z,5.6,0.0,0.0,0.0,0.0,0.0,2026-09-29T17:13:35.285Z,6.1,2026-09-29T17:13:34.891Z,399.5,2026-09-29T17:13:34.990Z,300.7,2026-09-29T17:13:34.990Z,301.2,2026-09-29T17:13:34.989Z,301.7,2026-09-29T17:13:34.892Z,398.5
2026-09-29T17:13:35.336Z,2026-09-29T17:13:35.429Z,2026-09-29T11:13:35.429-06:00,3.3,66,False,POSHOLD,1,0,-0.317992,0.736824,90.424772,-0.008594,-0.013178,0.018335,39.0187732,-104.8936033,2164.11,0.519,0.0,0.0,0.0,90.42,-0.011,0.009,39.0187733,-104.8936034,2165.89,0.0,203.19,31,6,0.68,1.25,0.001,0.007,-0.007,0,0.02942,-0.127486,-9.80665,0.0,0.0,0.0,-433,304,740,16.565,0.01,1,99,,1000,1000,1000,1000,0.021,0.023,0.022,0,0,0,831,0.0067,0.0042,0.0215,0.0029,784.591,45.34,-180.0,0.0,0.0,2026-09-29T17:13:35.331Z,0.003,6.982,0,140.8,0.0,16.0,89.0,3.0,2026-09-29T17:13:34.831Z,504.7,2026-09-29T17:13:35.332Z,3.7,2026-09-29T17:13:35.333Z,2.8,1,-12,-1000,0,0,0,2026-09-29T17:13:35.283Z,53.0,2026-09-29T17:13:35.286Z,50.3,2026-09-29T17:13:35.281Z,54.8,1790702014983750,374593,2026-09-29T17:13:34.892Z,444.1,,,,0,,,1,2026-09-29T17:13:35.284Z,52.3,16.565,0.01,99,32.2,0.0,0,1198652463,2026-09-29T17:13:35.284Z,51.8,5.239,0.021,1,2026-09-29T17:13:34.891Z,445.1,,,,,,,,,,,,,,,,,,,90,2164.11,2026-09-29T17:13:35.282Z,54.3,0,0,0,0,2026-09-29T17:13:35.283Z,53.6,1508,1514,1529,1493,255,2026-09-29T17:13:35.285Z,50.8,0.0,0.0,0.0,0.0,0.0,2026-09-29T17:13:35.285Z,51.3,2026-09-29T17:13:34.891Z,444.7,2026-09-29T17:13:34.990Z,345.9,2026-09-29T17:13:34.990Z,346.4,2026-09-29T17:13:34.989Z,346.9,2026-09-29T17:13:34.892Z,443.7
2026-09-29T17:13:35.389Z,2026-09-29T17:13:35.482Z,2026-09-29T11:13:35.482-06:00,3.35,67,False,POSHOLD,1,0,-0.318565,0.736824,90.426491,-0.001719,0.00974,0.021199,39.0187732,-104.8936033,2164.11,0.514,0.0,0.0,0.0,90.42,-0.011,0.009,39.0187733,-104.8936034,2165.89,0.0,203.19,31,6,0.68,1.25,0.001,0.007,-0.007,0,0.039227,-0.127486,-9.80665,0.0,0.0,0.0,-433,304,740,16.566,0.01,1,99,,1000,1000,1000,1000,0.021,0.023,0.022,0,0,0,831,0.0067,0.0042,0.0215,0.0029,784.591,45.34,-180.0,0.0,0.0,2026-09-29T17:13:35.381Z,0.003,9.807,0,190.8,0.0,16.0,89.0,3.0,2026-09-29T17:13:34.831Z,557.5,2026-09-29T17:13:35.385Z,3.7,2026-09-29T17:13:35.386Z,2.8,2,-13,-1000,0,0,0,2026-09-29T17:13:35.383Z,5.8,2026-09-29T17:13:35.286Z,103.1,2026-09-29T17:13:35.381Z,7.6,1790702014983750,374593,2026-09-29T17:13:34.892Z,496.9,,,,0,,,1,2026-09-29T17:13:35.384Z,5.1,16.565,0.01,99,32.2,0.0,0,1198652463,2026-09-29T17:13:35.284Z,104.6,5.239,0.021,1,2026-09-29T17:13:34.891Z,497.9,,,,,,,,,,,,,,,,,,,90,2164.11,2026-09-29T17:13:35.382Z,7.1,0,0,0,0,2026-09-29T17:13:35.383Z,6.4,1508,1514,1529,1493,255,2026-09-29T17:13:35.285Z,103.6,0.0,0.0,0.0,0.0,0.0,2026-09-29T17:13:35.285Z,104.1,2026-09-29T17:13:34.891Z,497.5,2026-09-29T17:13:34.990Z,398.8,2026-09-29T17:13:34.990Z,399.2,2026-09-29T17:13:34.989Z,399.7,2026-09-29T17:13:34.892Z,496.5
2026-09-29T17:13:35.436Z,2026-09-29T17:13:35.529Z,2026-09-29T11:13:35.529-06:00,3.4,68,False,POSHOLD,1,0,-0.318565,0.736824,90.426491,-0.033232,-0.008021,-0.012032,39.0187732,-104.8936033,2164.11,0.514,0.0,0.0,0.0,90.42,-0.011,0.009,39.0187733,-104.8936034,2165.89,0.0,203.19,31,6,0.68,1.25,0.001,0.007,-0.007,0,0.039227,-0.127486,-9.80665,0.0,0.0,0.0,-439,306,750,16.566,0.01,1,99,,1000,1000,1000,1000,0.021,0.023,0.022,0,0,0,831,0.0067,0.0042,0.0215,0.0029,784.591,45.34,-180.0,0.0,0.0,2026-09-29T17:13:35.431Z,0.003,6.925,0,240.8,0.0,16.0,89.0,3.0,2026-09-29T17:13:34.831Z,604.7,2026-09-29T17:13:35.432Z,3.7,2026-09-29T17:13:35.433Z,2.8,2,-13,-1000,0,0,0,2026-09-29T17:13:35.383Z,52.9,2026-09-29T17:13:35.286Z,150.3,2026-09-29T17:13:35.381Z,54.7,1790702014983750,374593,2026-09-29T17:13:34.892Z,544.1,,,,0,,,1,2026-09-29T17:13:35.384Z,52.2,16.565,0.01,99,32.2,0.0,0,1198652463,2026-09-29T17:13:35.284Z,151.7,5.239,0.021,1,2026-09-29T17:13:34.891Z,545.1,,,,,,,,,,,,,,,,,,,90,2164.11,2026-09-29T17:13:35.382Z,54.2,0,0,0,0,2026-09-29T17:13:35.383Z,53.5,1508,1514,1529,1493,255,2026-09-29T17:13:35.285Z,150.8,0.0,0.0,0.0,0.0,0.0,2026-09-29T17:13:35.285Z,151.3,2026-09-29T17:13:34.891Z,544.6,2026-09-29T17:13:34.990Z,445.9,2026-09-29T17:13:34.990Z,446.3,2026-09-29T17:13:34.989Z,446.8,2026-09-29T17:13:34.892Z,543.6
2026-09-29T17:13:35.492Z,2026-09-29T17:13:35.585Z,2026-09-29T11:13:35.585-06:00,3.45,69,False,POSHOLD,1,0,-0.319137,0.736251,90.427064,-0.032659,-0.010313,-0.013178,39.0187732,-104.8936033,2164.11,0.51,0.0,0.0,0.0,90.42,-0.011,0.009,39.0187733,-104.8936034,2165.88,0.0,296.56,31,6,0.68,1.25,0.002,0.007,-0.007,0,0.039227,-0.127486,-9.816457,0.0,0.0,0.0,-439,306,750,16.563,0.01,1,99,,1000,1000,1000,1000,0.023,0.021,0.022,0,0,0,831,0.0109,0.0031,0.0028,0.0007,784.593,45.34,-180.0,0.0,0.0,2026-09-29T17:13:35.481Z,0.002,13.18,0,290.8,0.0,16.0,89.0,3.0,2026-09-29T17:13:34.831Z,660.9,2026-09-29T17:13:35.487Z,5.2,2026-09-29T17:13:35.488Z,4.2,1,-13,-1000,0,0,0,2026-09-29T17:13:35.483Z,9.2,2026-09-29T17:13:35.486Z,6.5,2026-09-29T17:13:35.481Z,11.0,1790702014983750,374593,2026-09-29T17:13:34.892Z,600.3,,,,0,,,1,2026-09-29T17:13:35.484Z,8.5,16.563,0.01,99,31.5,0.0,0,1198652463,2026-09-29T17:13:35.484Z,8.0,5.239,0.021,1,2026-09-29T17:13:34.891Z,601.3,,,,,,,,,,,,,,,,,,,90,2164.11,2026-09-29T17:13:35.482Z,10.5,0,0,0,0,2026-09-29T17:13:35.483Z,9.8,1508,1514,1529,1493,255,2026-09-29T17:13:35.485Z,7.0,0.0,0.0,0.0,0.0,0.0,2026-09-29T17:13:35.485Z,7.5,2026-09-29T17:13:34.891Z,600.9,2026-09-29T17:13:35.492Z,0.3,2026-09-29T17:13:35.491Z,0.9,2026-09-29T17:13:35.491Z,1.3,2026-09-29T17:13:34.892Z,599.9
2026-09-29T17:13:35.536Z,2026-09-29T17:13:35.629Z,2026-09-29T11:13:35.629-06:00,3.5,70,False,POSHOLD,1,0,-0.31971,0.736251,90.427064,-0.016043,-0.006303,-0.00974,39.0187732,-104.8936033,2164.11,0.51,0.0,0.0,0.0,90.42,-0.011,0.009,39.0187733,-104.8936034,2165.88,0.0,296.56,31,6,0.68,1.25,0.002,0.007,-0.007,0,0.02942,-0.137293,-9.80665,0.0,0.0,0.0,-440,312,745,16.563,0.01,1,99,,1000,1000,1000,1000,0.023,0.021,0.022,0,0,0,831,0.0109,0.0031,0.0028,0.0007,784.593,45.34,-180.0,0.0,0.0,2026-09-29T17:13:35.531Z,0.003,6.918,0,340.8,0.0,16.0,89.0,3.0,2026-09-29T17:13:34.831Z,704.6,2026-09-29T17:13:35.532Z,3.7,2026-09-29T17:13:35.533Z,2.8,1,-13,-1000,0,0,0,2026-09-29T17:13:35.483Z,52.9,2026-09-29T17:13:35.486Z,50.2,2026-09-29T17:13:35.481Z,54.7,1790702014983750,374593,2026-09-29T17:13:34.892Z,644.1,,,,0,,,1,2026-09-29T17:13:35.484Z,52.2,16.563,0.01,99,31.5,0.0,0,1198652463,2026-09-29T17:13:35.484Z,51.7,5.239,0.021,1,2026-09-29T17:13:34.891Z,645.1,,,,,,,,,,,,,,,,,,,90,2164.11,2026-09-29T17:13:35.482Z,54.2,0,0,0,0,2026-09-29T17:13:35.483Z,53.5,1508,1514,1529,1493,255,2026-09-29T17:13:35.485Z,50.7,0.0,0.0,0.0,0.0,0.0,2026-09-29T17:13:35.485Z,51.2,2026-09-29T17:13:34.891Z,644.6,2026-09-29T17:13:35.492Z,44.1,2026-09-29T17:13:35.491Z,44.6,2026-09-29T17:13:35.491Z,45.0,2026-09-29T17:13:34.892Z,643.6
2026-09-29T17:13:35.589Z,2026-09-29T17:13:35.682Z,2026-09-29T11:13:35.682-06:00,3.55,71,False,POSHOLD,1,0,-0.320856,0.735678,90.427064,-0.024064,-0.014324,-0.0,39.0187732,-104.8936033,2164.1,0.508,0.0,0.0,0.0,90.42,-0.011,0.009,39.0187733,-104.8936034,2165.88,0.0,296.56,31,6,0.68,1.25,0.002,0.007,-0.007,0,0.02942,-0.11768,-9.816457,0.0,0.0,0.0,-440,312,745,16.573,0.01,1,99,,1000,1000,1000,1000,0.023,0.021,0.022,0,0,0,831,0.0109,0.0031,0.0028,0.0007,784.593,45.34,-180.0,0.0,0.0,2026-09-29T17:13:35.581Z,0.002,9.784,0,390.8,0.0,16.0,89.0,3.0,2026-09-29T17:13:34.831Z,757.5,2026-09-29T17:13:35.585Z,3.7,2026-09-29T17:13:35.586Z,2.8,1,-12,-1000,0,0,0,2026-09-29T17:13:35.583Z,5.8,2026-09-29T17:13:35.486Z,103.1,2026-09-29T17:13:35.581Z,7.6,1790702014983750,374593,2026-09-29T17:13:34.892Z,696.9,,,,0,,,1,2026-09-29T17:13:35.584Z,5.1,16.563,0.01,99,31.5,0.0,0,1198652463,2026-09-29T17:13:35.484Z,104.5,5.239,0.021,1,2026-09-29T17:13:34.891Z,697.9,,,,,,,,,,,,,,,,,,,90,2164.1,2026-09-29T17:13:35.582Z,7.1,0,0,0,0,2026-09-29T17:13:35.583Z,6.4,1508,1514,1529,1493,255,2026-09-29T17:13:35.485Z,103.6,0.0,0.0,0.0,0.0,0.0,2026-09-29T17:13:35.485Z,104.1,2026-09-29T17:13:34.891Z,697.5,2026-09-29T17:13:35.492Z,96.9,2026-09-29T17:13:35.491Z,97.5,2026-09-29T17:13:35.491Z,97.9,2026-09-29T17:13:34.892Z,696.5
2026-09-29T17:13:35.637Z,2026-09-29T17:13:35.730Z,2026-09-29T11:13:35.730-06:00,3.6,72,False,POSHOLD,1,0,-0.321429,0.736251,90.427064,-0.031513,0.006303,-0.019481,39.0187732,-104.8936033,2164.1,0.508,0.0,0.0,0.0,90.42,-0.011,0.009,39.0187733,-104.8936034,2165.88,0.0,296.56,31,6,0.68,1.25,0.002,0.007,-0.007,0,0.049033,-0.127486,-9.816457,0.0,0.0,0.0,-437,306,736,16.573,0.01,1,99,,1000,1000,1000,1000,0.023,0.021,0.022,0,0,0,831,0.0109,0.0031,0.0028,0.0007,784.593,45.34,-180.0,0.0,0.0,2026-09-29T17:13:35.631Z,0.003,7.812,0,440.8,0.0,0.0,0.0,0.0,2026-09-29T17:13:35.632Z,5.1,2026-09-29T17:13:35.633Z,3.7,2026-09-29T17:13:35.634Z,2.8,1,-12,-1000,0,0,0,2026-09-29T17:13:35.583Z,53.8,2026-09-29T17:13:35.486Z,151.1,2026-09-29T17:13:35.581Z,55.6,1790702014983750,374593,2026-09-29T17:13:34.892Z,744.9,,,,0,,,1,2026-09-29T17:13:35.584Z,53.1,16.563,0.01,99,31.5,0.0,0,1198652463,2026-09-29T17:13:35.484Z,152.6,5.239,0.021,1,2026-09-29T17:13:34.891Z,745.9,,,,,,,,,,,,,,,,,,,90,2164.1,2026-09-29T17:13:35.582Z,55.1,0,0,0,0,2026-09-29T17:13:35.583Z,54.4,1508,1514,1529,1493,255,2026-09-29T17:13:35.485Z,151.6,0.0,0.0,0.0,0.0,0.0,2026-09-29T17:13:35.485Z,152.1,2026-09-29T17:13:34.891Z,745.5,2026-09-29T17:13:35.492Z,145.0,2026-09-29T17:13:35.491Z,145.5,2026-09-29T17:13:35.491Z,145.9,2026-09-29T17:13:34.892Z,744.5
2026-09-29T17:13:35.691Z,2026-09-29T17:13:35.784Z,2026-09-29T11:13:35.784-06:00,3.65,73,False,POSHOLD,1,0,-0.321429,0.737397,90.427637,-0.000573,0.018335,0.013178,39.0187732,-104.8936033,2164.1,0.505,0.0,0.0,0.0,90.42,-0.011,0.009,39.0187733,-104.8936034,2165.88,0.02,211.32,31,6,0.68,1.25,0.001,0.008,-0.008,0,0.039227,-0.11768,-9.80665,0.0,0.0,0.0,-437,306,736,16.569,0.0,1,99,,1000,1000,1000,1000,0.023,0.021,0.022,0,0,0,831,0.0109,0.0031,0.0028,0.0007,784.593,45.34,-180.0,0.0,0.0,2026-09-29T17:13:35.681Z,0.003,11.85,0,490.8,0.0,0.0,0.0,0.0,2026-09-29T17:13:35.632Z,59.0,2026-09-29T17:13:35.687Z,3.7,2026-09-29T17:13:35.688Z,2.7,1,-13,-1000,0,0,0,2026-09-29T17:13:35.683Z,7.8,2026-09-29T17:13:35.686Z,5.1,2026-09-29T17:13:35.681Z,9.5,1790702014983750,374593,2026-09-29T17:13:34.892Z,798.9,,,,0,,,1,2026-09-29T17:13:35.684Z,7.0,16.569,0.0,99,31.6,0.0,0,1198652463,2026-09-29T17:13:35.684Z,6.5,5.239,0.021,1,2026-09-29T17:13:34.891Z,799.9,,,,,,,,,,,,,,,,,,,90,2164.1,2026-09-29T17:13:35.682Z,9.0,0,0,0,0,2026-09-29T17:13:35.683Z,8.3,1508,1514,1529,1493,255,2026-09-29T17:13:35.685Z,5.6,0.0,0.0,0.0,0.0,0.0,2026-09-29T17:13:35.685Z,6.1,2026-09-29T17:13:34.891Z,799.5,2026-09-29T17:13:35.492Z,198.9,2026-09-29T17:13:35.491Z,199.5,2026-09-29T17:13:35.491Z,199.9,2026-09-29T17:13:34.892Z,798.5
2026-09-29T17:13:35.736Z,2026-09-29T17:13:35.829Z,2026-09-29T11:13:35.829-06:00,3.7,74,False,POSHOLD,1,0,-0.320283,0.738543,90.428783,-0.003438,-0.001719,0.005157,39.0187732,-104.8936033,2164.1,0.505,0.0,0.0,0.0,90.42,-0.011,0.009,39.0187733,-104.8936034,2165.88,0.02,211.32,31,6,0.68,1.25,0.001,0.008,-0.008,0,0.039227,-0.127486,-9.816457,0.0,0.0,0.0,-436,304,745,16.569,0.0,1,99,,1000,1000,1000,1000,0.023,0.021,0.022,0,0,0,831,0.0109,0.0031,0.0028,0.0007,784.593,45.34,-180.0,0.0,0.0,2026-09-29T17:13:35.731Z,0.002,7.335,0,540.8,0.0,0.0,4.0,4.0,2026-09-29T17:13:35.735Z,1.4,2026-09-29T17:13:35.732Z,4.1,2026-09-29T17:13:35.733Z,3.2,1,-13,-1000,0,0,0,2026-09-29T17:13:35.683Z,53.3,2026-09-29T17:13:35.686Z,50.6,2026-09-29T17:13:35.681Z,55.1,1790702014983750,374593,2026-09-29T17:13:34.892Z,844.5,,,,0,,,1,2026-09-29T17:13:35.684Z,52.6,16.569,0.0,99,31.6,0.0,0,1198652463,2026-09-29T17:13:35.684Z,52.1,5.239,0.021,1,2026-09-29T17:13:34.891Z,845.5,,,,,,,,,,,,,,,,,,,90,2164.1,2026-09-29T17:13:35.682Z,54.6,0,0,0,0,2026-09-29T17:13:35.683Z,53.9,1508,1514,1529,1493,255,2026-09-29T17:13:35.685Z,51.1,0.0,0.0,0.0,0.0,0.0,2026-09-29T17:13:35.685Z,51.6,2026-09-29T17:13:34.891Z,845.0,2026-09-29T17:13:35.492Z,244.5,2026-09-29T17:13:35.491Z,245.0,2026-09-29T17:13:35.491Z,245.5,2026-09-29T17:13:34.892Z,844.0
2026-09-29T17:13:35.789Z,2026-09-29T17:13:35.882Z,2026-09-29T11:13:35.882-06:00,3.75,75,False,POSHOLD,1,0,-0.320283,0.738543,90.42821,-0.009167,-0.021772,0.013178,39.0187732,-104.8936033,2164.1,0.501,0.0,0.0,0.0,90.42,-0.011,0.009,39.0187733,-104.8936034,2165.88,0.02,211.32,31,6,0.68,1.25,0.0,0.009,-0.008,0,0.039227,-0.127486,-9.80665,0.0,0.0,0.0,-436,304,745,16.566,0.01,1,99,,1000,1000,1000,1000,0.023,0.021,0.022,0,0,0,831,0.0109,0.0031,0.0028,0.0007,784.593,45.34,-180.0,0.0,0.0,2026-09-29T17:13:35.781Z,0.003,9.727,0,590.8,0.0,0.0,4.0,4.0,2026-09-29T17:13:35.735Z,53.8,2026-09-29T17:13:35.785Z,3.7,2026-09-29T17:13:35.786Z,2.8,1,-13,-1000,0,0,0,2026-09-29T17:13:35.783Z,5.8,2026-09-29T17:13:35.686Z,103.0,2026-09-29T17:13:35.781Z,7.5,1790702014983750,374593,2026-09-29T17:13:34.892Z,896.9,,,,0,,,1,2026-09-29T17:13:35.784Z,5.0,16.569,0.0,99,31.6,0.0,0,1198652463,2026-09-29T17:13:35.684Z,104.5,5.239,0.021,1,2026-09-29T17:13:34.891Z,897.9,,,,,,,,,,,,,,,,,,,90,2164.1,2026-09-29T17:13:35.782Z,7.0,0,0,0,0,2026-09-29T17:13:35.783Z,6.4,1508,1514,1529,1493,255,2026-09-29T17:13:35.685Z,103.5,0.0,0.0,0.0,0.0,0.0,2026-09-29T17:13:35.685Z,104.0,2026-09-29T17:13:34.891Z,897.4,2026-09-29T17:13:35.492Z,296.9,2026-09-29T17:13:35.491Z,297.4,2026-09-29T17:13:35.491Z,297.9,2026-09-29T17:13:34.892Z,896.4
2026-09-29T17:13:35.836Z,2026-09-29T17:13:35.929Z,2026-09-29T11:13:35.929-06:00,3.8,76,False,POSHOLD,1,0,-0.320283,0.739689,90.428783,-0.008021,0.00573,-0.007448,39.0187732,-104.8936033,2164.1,0.501,0.0,0.0,0.0,90.42,-0.011,0.009,39.0187733,-104.8936034,2165.88,0.02,211.32,31,6,0.68,1.25,0.0,0.009,-0.008,0,0.039227,-0.127486,-9.80665,0.0,0.0,0.0,-432,299,745,16.566,0.01,1,99,,1000,1000,1000,1000,0.023,0.021,0.022,0,0,0,831,0.0109,0.0031,0.0028,0.0007,784.593,45.34,-180.0,0.0,0.0,2026-09-29T17:13:35.831Z,0.002,7.379,0,640.8,0.0,16.0,89.0,3.0,2026-09-29T17:13:35.831Z,5.1,2026-09-29T17:13:35.833Z,3.7,2026-09-29T17:13:35.834Z,2.8,1,-13,-1000,0,0,0,2026-09-29T17:13:35.783Z,53.4,2026-09-29T17:13:35.686Z,150.6,2026-09-29T17:13:35.781Z,55.2,1790702014983750,374593,2026-09-29T17:13:34.892Z,944.5,,,,0,,,1,2026-09-29T17:13:35.784Z,52.7,16.569,0.0,99,31.6,0.0,0,1198652463,2026-09-29T17:13:35.684Z,152.1,5.239,0.021,1,2026-09-29T17:13:34.891Z,945.5,,,,,,,,,,,,,,,,,,,90,2164.1,2026-09-29T17:13:35.782Z,54.7,0,0,0,0,2026-09-29T17:13:35.783Z,54.0,1508,1514,1529,1493,255,2026-09-29T17:13:35.685Z,151.1,0.0,0.0,0.0,0.0,0.0,2026-09-29T17:13:35.685Z,151.7,2026-09-29T17:13:34.891Z,945.1,2026-09-29T17:13:35.492Z,344.5,2026-09-29T17:13:35.491Z,345.0,2026-09-29T17:13:35.491Z,345.5,2026-09-29T17:13:34.892Z,944.1
2026-09-29T17:13:35.893Z,2026-09-29T17:13:35.986Z,2026-09-29T11:13:35.986-06:00,3.85,77,False,POSHOLD,1,0,-0.319137,0.739116,90.427064,0.004011,-0.036096,-0.011459,39.0187732,-104.8936033,2164.09,0.498,0.0,0.0,0.0,90.42,-0.011,0.009,39.0187733,-104.8936034,2165.88,0.01,270.0,31,6,0.68,1.25,0.0,0.009,-0.009,0,0.049033,-0.11768,-9.80665,0.0,0.0,0.0,-432,299,745,16.567,0.01,1,99,,1000,1000,1000,1000,0.023,0.021,0.022,0,0,0,831,0.0109,0.0031,0.0028,0.0007,784.593,45.34,-180.0,0.0,0.0,2026-09-29T17:13:35.881Z,0.003,13.641,0,690.8,0.0,16.0,89.0,3.0,2026-09-29T17:13:35.831Z,61.4,2026-09-29T17:13:35.887Z,5.6,2026-09-29T17:13:35.888Z,4.6,1,-12,-999,0,0,0,2026-09-29T17:13:35.883Z,9.7,2026-09-29T17:13:35.886Z,7.0,2026-09-29T17:13:35.881Z,11.4,1790702015983708,375593,2026-09-29T17:13:35.892Z,0.8,,,,0,,,1,2026-09-29T17:13:35.884Z,8.9,16.567,0.01,99,32.0,0.0,0,1198652463,2026-09-29T17:13:35.884Z,8.4,5.254,0.016,1,2026-09-29T17:13:35.891Z,1.7,,,,,,,,,,,,,,,,,,,90,2164.09,2026-09-29T17:13:35.882Z,10.9,0,0,0,0,2026-09-29T17:13:35.883Z,10.2,1508,1514,1529,1493,255,2026-09-29T17:13:35.885Z,7.5,0.0,0.0,0.0,0.0,0.0,2026-09-29T17:13:35.885Z,8.0,2026-09-29T17:13:35.891Z,1.3,2026-09-29T17:13:35.492Z,400.8,2026-09-29T17:13:35.491Z,401.3,2026-09-29T17:13:35.491Z,401.7,2026-09-29T17:13:35.892Z,0.3
2026-09-29T17:13:35.936Z,2026-09-29T17:13:36.029Z,2026-09-29T11:13:36.029-06:00,3.9,78,False,POSHOLD,1,0,-0.319137,0.740261,90.427637,0.012605,-0.004584,0.00573,39.0187732,-104.8936033,2164.09,0.498,0.0,0.0,0.0,90.42,-0.011,0.009,39.0187733,-104.8936034,2165.88,0.01,270.0,31,6,0.68,1.25,0.0,0.009,-0.009,0,0.039227,-0.11768,-9.816457,0.0,0.0,0.0,-434,305,744,16.567,0.01,1,99,,1000,1000,1000,1000,0.023,0.021,0.022,0,0,0,831,0.0109,0.0031,0.0028,0.0007,784.593,45.34,-180.0,0.0,0.0,2026-09-29T17:13:35.931Z,0.002,6.919,0,740.8,0.0,16.0,89.0,3.0,2026-09-29T17:13:35.831Z,104.7,2026-09-29T17:13:35.932Z,3.7,2026-09-29T17:13:35.933Z,2.8,1,-12,-999,0,0,0,2026-09-29T17:13:35.883Z,53.0,2026-09-29T17:13:35.886Z,50.3,2026-09-29T17:13:35.881Z,54.7,1790702015983708,375593,2026-09-29T17:13:35.892Z,44.1,,,,0,,,1,2026-09-29T17:13:35.884Z,52.2,16.567,0.01,99,32.0,0.0,0,1198652463,2026-09-29T17:13:35.884Z,51.7,5.254,0.016,1,2026-09-29T17:13:35.891Z,45.0,,,,,,,,,,,,,,,,,,,90,2164.09,2026-09-29T17:13:35.882Z,54.2,0,0,0,0,2026-09-29T17:13:35.883Z,53.5,1508,1514,1529,1493,255,2026-09-29T17:13:35.885Z,50.8,0.0,0.0,0.0,0.0,0.0,2026-09-29T17:13:35.885Z,51.3,2026-09-29T17:13:35.891Z,44.6,2026-09-29T17:13:35.492Z,444.1,2026-09-29T17:13:35.491Z,444.6,2026-09-29T17:13:35.491Z,445.0,2026-09-29T17:13:35.892Z,43.6
2026-09-29T17:13:35.990Z,2026-09-29T17:13:36.083Z,2026-09-29T11:13:36.083-06:00,3.95,79,False,POSHOLD,1,0,-0.318565,0.740834,90.427064,-0.00573,-0.014897,-0.000573,39.0187732,-104.8936033,2164.09,0.496,0.0,0.0,0.0,90.42,-0.011,0.009,39.0187733,-104.8936034,2165.88,0.01,270.0,31,6,0.68,1.25,0.001,0.01,-0.01,0,0.02942,-0.11768,-9.80665,0.0,0.0,0.0,-434,305,744,16.563,0.01,1,99,,1000,1000,1000,1000,0.023,0.022,0.023,0,0,0,831,0.0049,0.0031,0.0021,0.0011,784.588,45.34,-180.0,0.0,0.0,2026-09-29T17:13:35.981Z,0.002,11.245,0,790.8,0.0,16.0,89.0,3.0,2026-09-29T17:13:35.831Z,158.9,2026-09-29T17:13:35.985Z,5.1,2026-09-29T17:13:35.986Z,4.2,2,-12,-1001,0,0,0,2026-09-29T17:13:35.983Z,7.2,2026-09-29T17:13:35.886Z,104.5,2026-09-29T17:13:35.981Z,9.0,1790702015983708,375593,2026-09-29T17:13:35.892Z,98.3,,,,0,,,1,2026-09-29T17:13:35.984Z,6.5,16.567,0.01,99,32.0,0.0,0,1198652463,2026-09-29T17:13:35.884Z,106.0,5.254,0.016,1,2026-09-29T17:13:35.891Z,99.3,,,,,,,,,,,,,,,,,,,90,2164.09,2026-09-29T17:13:35.982Z,8.5,0,0,0,0,2026-09-29T17:13:35.983Z,7.8,1508,1514,1529,1493,255,2026-09-29T17:13:35.885Z,105.0,0.0,0.0,0.0,0.0,0.0,2026-09-29T17:13:35.885Z,105.5,2026-09-29T17:13:35.891Z,98.9,2026-09-29T17:13:35.990Z,0.3,2026-09-29T17:13:35.990Z,0.8,2026-09-29T17:13:35.989Z,1.3,2026-09-29T17:13:35.892Z,97.9
2026-09-29T17:13:36.036Z,2026-09-29T17:13:36.129Z,2026-09-29T11:13:36.129-06:00,4.0,80,False,POSHOLD,1,0,-0.319137,0.741407,90.425918,-0.010886,0.012605,0.00573,39.0187732,-104.8936033,2164.09,0.496,0.0,0.0,0.0,90.42,-0.011,0.009,39.0187733,-104.8936034,2165.88,0.01,270.0,31,6,0.68,1.25,0.001,0.01,-0.01,0,0.039227,-0.11768,-9.80665,0.0,0.0,0.0,-435,311,743,16.563,0.01,1,99,,1000,1000,1000,1000,0.023,0.022,0.023,0,0,0,831,0.0049,0.0031,0.0021,0.0011,784.588,45.34,-180.0,0.0,0.0,2026-09-29T17:13:36.031Z,0.002,6.994,0,840.8,0.0,16.0,89.0,3.0,2026-09-29T17:13:35.831Z,204.7,2026-09-29T17:13:36.032Z,3.7,2026-09-29T17:13:36.033Z,2.8,2,-12,-1001,0,0,0,2026-09-29T17:13:35.983Z,53.0,2026-09-29T17:13:35.886Z,150.3,2026-09-29T17:13:35.981Z,54.8,1790702015983708,375593,2026-09-29T17:13:35.892Z,144.2,,,,0,,,1,2026-09-29T17:13:35.984Z,52.3,16.567,0.01,99,32.0,0.0,0,1198652463,2026-09-29T17:13:35.884Z,151.8,5.254,0.016,1,2026-09-29T17:13:35.891Z,145.1,,,,,,,,,,,,,,,,,,,90,2164.09,2026-09-29T17:13:35.982Z,54.3,0,0,0,0,2026-09-29T17:13:35.983Z,53.6,1508,1514,1529,1493,255,2026-09-29T17:13:35.885Z,150.8,0.0,0.0,0.0,0.0,0.0,2026-09-29T17:13:35.885Z,151.3,2026-09-29T17:13:35.891Z,144.7,2026-09-29T17:13:35.990Z,46.2,2026-09-29T17:13:35.990Z,46.6,2026-09-29T17:13:35.989Z,47.1,2026-09-29T17:13:35.892Z,143.7
2026-09-29T17:13:36.091Z,2026-09-29T17:13:36.184Z,2026-09-29T11:13:36.184-06:00,4.05,81,False,POSHOLD,1,0,-0.320283,0.74198,90.425345,-0.011459,0.006875,-0.014324,39.0187732,-104.8936034,2164.09,0.493,0.0,0.0,0.01,90.42,-0.011,0.0,39.0187733,-104.8936034,2165.88,0.02,2.48,31,6,0.68,1.25,0.001,0.01,-0.01,0,0.02942,-0.127486,-9.80665,0.0,0.0,0.0,-435,311,743,16.559,0.0,1,99,,1000,1000,1000,1000,0.023,0.022,0.023,0,0,0,831,0.0049,0.0031,0.0021,0.0011,784.588,45.34,-180.0,0.0,0.0,2026-09-29T17:13:36.081Z,0.002,11.832,0,890.8,0.0,16.0,89.0,3.0,2026-09-29T17:13:35.831Z,259.5,2026-09-29T17:13:36.087Z,3.7,2026-09-29T17:13:36.088Z,2.8,0,-14,-999,0,0,0,2026-09-29T17:13:36.083Z,7.8,2026-09-29T17:13:36.086Z,5.1,2026-09-29T17:13:36.081Z,9.5,1790702015983708,375593,2026-09-29T17:13:35.892Z,198.9,,,,0,,,1,2026-09-29T17:13:36.084Z,7.0,16.559,0.0,99,31.7,0.0,0,1198652463,2026-09-29T17:13:36.084Z,6.5,5.254,0.016,1,2026-09-29T17:13:35.891Z,199.9,,,,,,,,,,,,,,,,,,,90,2164.09,2026-09-29T17:13:36.082Z,9.0,0,0,0,0,2026-09-29T17:13:36.083Z,8.4,1508,1514,1529,1493,255,2026-09-29T17:13:36.085Z,5.6,0.0,0.0,0.0,0.0,0.0,2026-09-29T17:13:36.085Z,6.1,2026-09-29T17:13:35.891Z,199.4,2026-09-29T17:13:35.990Z,100.9,2026-09-29T17:13:35.990Z,101.4,2026-09-29T17:13:35.989Z,101.8,2026-09-29T17:13:35.892Z,198.5
2026-09-29T17:13:36.136Z,2026-09-29T17:13:36.229Z,2026-09-29T11:13:36.229-06:00,4.1,82,False,POSHOLD,1,0,-0.320283,0.74198,90.424772,0.012605,-0.018908,-0.026356,39.0187732,-104.8936034,2164.09,0.493,0.0,0.0,0.01,90.42,-0.011,0.0,39.0187733,-104.8936034,2165.88,0.02,2.48,31,6,0.68,1.25,0.001,0.01,-0.01,0,0.039227,-0.11768,-9.816457,0.0,0.001,0.0,-435,308,743,16.559,0.0,1,99,,1000,1000,1000,1000,0.023,0.022,0.023,0,0,0,831,0.0049,0.0031,0.0021,0.0011,784.588,45.34,-180.0,0.0,0.0,2026-09-29T17:13:36.131Z,0.002,7.447,0,940.8,0.0,16.0,89.0,3.0,2026-09-29T17:13:35.831Z,305.2,2026-09-29T17:13:36.133Z,3.7,2026-09-29T17:13:36.134Z,2.8,0,-14,-999,0,0,0,2026-09-29T17:13:36.083Z,53.5,2026-09-29T17:13:36.086Z,50.8,2026-09-29T17:13:36.081Z,55.2,1790702015983708,375593,2026-09-29T17:13:35.892Z,244.6,,,,0,,,1,2026-09-29T17:13:36.084Z,52.7,16.559,0.0,99,31.7,0.0,0,1198652463,2026-09-29T17:13:36.084Z,52.2,5.254,0.016,1,2026-09-29T17:13:35.891Z,245.6,,,,,,,,,,,,,,,,,,,90,2164.09,2026-09-29T17:13:36.082Z,54.7,0,0,0,0,2026-09-29T17:13:36.083Z,54.1,1508,1514,1529,1493,255,2026-09-29T17:13:36.085Z,51.3,0.0,0.0,0.0,0.0,0.0,2026-09-29T17:13:36.085Z,51.8,2026-09-29T17:13:35.891Z,245.1,2026-09-29T17:13:35.990Z,146.6,2026-09-29T17:13:35.990Z,147.1,2026-09-29T17:13:35.989Z,147.5,2026-09-29T17:13:35.892Z,244.2
2026-09-29T17:13:36.189Z,2026-09-29T17:13:36.282Z,2026-09-29T11:13:36.282-06:00,4.15,83,False,POSHOLD,1,0,-0.320856,0.742553,90.423626,0.001146,0.002865,-0.007448,39.0187732,-104.8936034,2164.09,0.492,0.0,0.0,0.01,90.42,-0.011,0.0,39.0187733,-104.8936034,2165.88,0.02,2.48,31,6,0.68,1.25,0.002,0.011,-0.01,0,0.039227,-0.11768,-9.80665,0.0,0.0,0.0,-435,308,743,16.567,0.01,1,99,,1000,1000,1000,1000,0.023,0.022,0.023,0,0,0,831,0.0049,0.0031,0.0021,0.0011,784.588,45.34,-180.0,0.0,0.0,2026-09-29T17:13:36.181Z,0.002,9.745,0,990.8,0.0,16.0,89.0,3.0,2026-09-29T17:13:35.831Z,357.5,2026-09-29T17:13:36.185Z,3.7,2026-09-29T17:13:36.186Z,2.8,1,-13,-999,0,0,0,2026-09-29T17:13:36.183Z,5.8,2026-09-29T17:13:36.086Z,103.1,2026-09-29T17:13:36.181Z,7.5,1790702015983708,375593,2026-09-29T17:13:35.892Z,296.9,,,,0,,,1,2026-09-29T17:13:36.184Z,5.0,16.559,0.0,99,31.7,0.0,0,1198652463,2026-09-29T17:13:36.084Z,104.5,5.254,0.016,1,2026-09-29T17:13:35.891Z,297.9,,,,,,,,,,,,,,,,,,,90,2164.09,2026-09-29T17:13:36.182Z,7.0,0,0,0,0,2026-09-29T17:13:36.183Z,6.4,1508,1514,1529,1493,255,2026-09-29T17:13:36.085Z,103.6,0.0,0.0,0.0,0.0,0.0,2026-09-29T17:13:36.085Z,104.1,2026-09-29T17:13:35.891Z,297.4,2026-09-29T17:13:35.990Z,198.9,2026-09-29T17:13:35.990Z,199.4,2026-09-29T17:13:35.989Z,199.8,2026-09-29T17:13:35.892Z,296.5
2026-09-29T17:13:36.238Z,2026-09-29T17:13:36.331Z,2026-09-29T11:13:36.331-06:00,4.2,84,False,POSHOLD,1,0,-0.321429,0.742553,90.423053,-0.005157,-0.009167,-0.011459,39.0187732,-104.8936034,2164.09,0.492,0.0,0.0,0.01,90.42,-0.011,0.0,39.0187733,-104.8936034,2165.88,0.02,2.48,31,6,0.68,1.25,0.002,0.011,-0.01,0,0.039227,-0.127486,-9.80665,0.0,0.0,0.0,-445,308,743,16.567,0.01,1,99,,1000,1000,1000,1000,0.023,0.022,0.023,0,0,0,831,0.0049,0.0031,0.0021,0.0011,784.588,45.34,-180.0,0.0,0.0,2026-09-29T17:13:36.231Z,0.003,8.574,0,-6.9,0.0,16.0,89.0,3.0,2026-09-29T17:13:35.831Z,406.3,2026-09-29T17:13:36.232Z,5.4,2026-09-29T17:13:36.233Z,4.5,1,-13,-999,0,0,0,2026-09-29T17:13:36.183Z,54.6,2026-09-29T17:13:36.086Z,151.9,2026-09-29T17:13:36.181Z,56.4,1790702015983708,375593,2026-09-29T17:13:35.892Z,345.7,,,,0,,,1,2026-09-29T17:13:36.184Z,53.9,16.559,0.0,99,31.7,0.0,0,1198652463,2026-09-29T17:13:36.084Z,153.4,5.254,0.016,1,2026-09-29T17:13:35.891Z,346.7,,,,,,,,,,,,,,,,,,,90,2164.09,2026-09-29T17:13:36.182Z,55.9,0,0,0,0,2026-09-29T17:13:36.183Z,55.2,1508,1514,1529,1493,255,2026-09-29T17:13:36.085Z,152.4,0.0,0.0,0.0,0.0,0.0,2026-09-29T17:13:36.085Z,152.9,2026-09-29T17:13:35.891Z,346.2,2026-09-29T17:13:35.990Z,247.7,2026-09-29T17:13:35.990Z,248.2,2026-09-29T17:13:35.989Z,248.6,2026-09-29T17:13:35.892Z,345.3
2026-09-29T17:13:36.291Z,2026-09-29T17:13:36.384Z,2026-09-29T11:13:36.384-06:00,4.25,85,False,POSHOLD,1,0,-0.322002,0.743126,90.421907,-0.012605,-0.014324,-0.033805,39.0187732,-104.8936034,2164.09,0.491,0.0,0.0,0.01,90.42,-0.011,0.0,39.0187733,-104.8936034,2165.88,0.01,281.88,31,6,0.68,1.25,0.003,0.011,-0.01,0,0.039227,-0.11768,-9.816457,0.0,0.0,0.0,-445,308,743,16.57,0.01,1,99,,1000,1000,1000,1000,0.023,0.022,0.023,0,0,0,831,0.0049,0.0031,0.0021,0.0011,784.588,45.34,-180.0,0.0,0.0,2026-09-29T17:13:36.281Z,0.003,11.796,0,43.1,0.0,16.0,89.0,3.0,2026-09-29T17:13:35.831Z,459.5,2026-09-29T17:13:36.287Z,3.7,2026-09-29T17:13:36.288Z,2.7,0,-13,-1000,0,0,0,2026-09-29T17:13:36.283Z,7.7,2026-09-29T17:13:36.286Z,5.0,2026-09-29T17:13:36.281Z,9.5,1790702015983708,375593,2026-09-29T17:13:35.892Z,398.9,,,,0,,,1,2026-09-29T17:13:36.284Z,7.0,16.57,0.01,99,33.0,0.0,0,1198652463,2026-09-29T17:13:36.284Z,6.5,5.254,0.016,1,2026-09-29T17:13:35.891Z,399.9,,,,,,,,,,,,,,,,,,,90,2164.09,2026-09-29T17:13:36.282Z,9.0,0,0,0,0,2026-09-29T17:13:36.283Z,8.3,1508,1514,1529,1493,255,2026-09-29T17:13:36.285Z,5.5,0.0,0.0,0.0,0.0,0.0,2026-09-29T17:13:36.285Z,6.0,2026-09-29T17:13:35.891Z,399.4,2026-09-29T17:13:35.990Z,300.9,2026-09-29T17:13:35.990Z,301.3,2026-09-29T17:13:35.989Z,301.8,2026-09-29T17:13:35.892Z,398.4
2026-09-29T17:13:36.336Z,2026-09-29T17:13:36.429Z,2026-09-29T11:13:36.429-06:00,4.3,86,False,POSHOLD,1,0,-0.322002,0.744272,90.420761,0.019481,0.014897,-0.022918,39.0187732,-104.8936034,2164.09,0.491,0.0,0.0,0.01,90.42,-0.011,0.0,39.0187733,-104.8936034,2165.88,0.01,281.88,31,6,0.68,1.25,0.003,0.011,-0.01,0,0.039227,-0.11768,-9.80665,0.0,0.0,0.0,-434,307,738,16.57,0.01,1,99,,1000,1000,1000,1000,0.023,0.022,0.023,0,0,0,831,0.0049,0.0031,0.0021,0.0011,784.588,45.34,-180.0,0.0,0.0,2026-09-29T17:13:36.331Z,0.002,6.904,0,93.1,0.0,16.0,89.0,3.0,2026-09-29T17:13:35.831Z,504.7,2026-09-29T17:13:36.332Z,3.7,2026-09-29T17:13:36.333Z,2.8,0,-13,-1000,0,0,0,2026-09-29T17:13:36.283Z,52.9,2026-09-29T17:13:36.286Z,50.2,2026-09-29T17:13:36.281Z,54.7,1790702015983708,375593,2026-09-29T17:13:35.892Z,444.1,,,,0,,,1,2026-09-29T17:13:36.284Z,52.2,16.57,0.01,99,33.0,0.0,0,1198652463,2026-09-29T17:13:36.284Z,51.7,5.254,0.016,1,2026-09-29T17:13:35.891Z,445.0,,,,,,,,,,,,,,,,,,,90,2164.09,2026-09-29T17:13:36.282Z,54.2,0,0,0,0,2026-09-29T17:13:36.283Z,53.5,1508,1514,1529,1493,255,2026-09-29T17:13:36.285Z,50.7,0.0,0.0,0.0,0.0,0.0,2026-09-29T17:13:36.285Z,51.2,2026-09-29T17:13:35.891Z,444.6,2026-09-29T17:13:35.990Z,346.1,2026-09-29T17:13:35.990Z,346.5,2026-09-29T17:13:35.989Z,347.0,2026-09-29T17:13:35.892Z,443.6
2026-09-29T17:13:36.389Z,2026-09-29T17:13:36.482Z,2026-09-29T11:13:36.482-06:00,4.35,87,False,POSHOLD,1,0,-0.322575,0.744845,90.419043,-0.016043,0.004584,-0.012605,39.0187732,-104.8936034,2164.09,0.49,0.0,0.0,0.0,90.41,-0.011,0.0,39.0187733,-104.8936034,2165.88,0.01,281.88,31,6,0.68,1.25,0.004,0.01,-0.01,0,0.039227,-0.11768,-9.80665,0.0,0.0,0.0,-434,307,738,16.567,0.01,1,99,,1000,1000,1000,1000,0.023,0.022,0.023,0,0,0,831,0.0049,0.0031,0.0021,0.0011,784.588,45.34,-180.0,0.0,0.0,2026-09-29T17:13:36.381Z,0.002,10.389,0,143.1,0.0,16.0,89.0,3.0,2026-09-29T17:13:35.831Z,558.1,2026-09-29T17:13:36.386Z,3.7,2026-09-29T17:13:36.387Z,2.8,3,-12,-1000,0,0,-1,2026-09-29T17:13:36.384Z,5.7,2026-09-29T17:13:36.286Z,103.7,2026-09-29T17:13:36.382Z,7.5,1790702015983708,375593,2026-09-29T17:13:35.892Z,497.5,,,,0,,,1,2026-09-29T17:13:36.384Z,5.1,16.57,0.01,99,33.0,0.0,0,1198652463,2026-09-29T17:13:36.284Z,105.2,5.254,0.016,1,2026-09-29T17:13:35.891Z,498.5,,,,,,,,,,,,,,,,,,,90,2164.09,2026-09-29T17:13:36.382Z,7.1,0,0,0,0,2026-09-29T17:13:36.383Z,6.4,1508,1514,1529,1493,255,2026-09-29T17:13:36.285Z,104.2,0.0,0.0,0.0,0.0,0.0,2026-09-29T17:13:36.285Z,104.7,2026-09-29T17:13:35.891Z,498.1,2026-09-29T17:13:35.990Z,399.5,2026-09-29T17:13:35.990Z,400.0,2026-09-29T17:13:35.989Z,400.5,2026-09-29T17:13:35.892Z,497.1
2026-09-29T17:13:36.436Z,2026-09-29T17:13:36.529Z,2026-09-29T11:13:36.529-06:00,4.4,88,False,POSHOLD,1,0,-0.323148,0.745418,90.41847,0.014324,0.011459,0.004584,39.0187732,-104.8936034,2164.09,0.49,0.0,0.0,0.0,90.41,-0.011,0.0,39.0187733,-104.8936034,2165.88,0.01,281.88,31,6,0.68,1.25,0.004,0.01,-0.01,0,0.039227,-0.127486,-9.816457,0.0,0.0,0.0,-438,310,745,16.567,0.01,1,99,,1000,1000,1000,1000,0.023,0.022,0.023,0,0,0,831,0.0049,0.0031,0.0021,0.0011,784.588,45.34,-180.0,0.0,0.0,2026-09-29T17:13:36.431Z,0.003,7.085,0,193.1,0.0,16.0,89.0,3.0,2026-09-29T17:13:35.831Z,604.8,2026-09-29T17:13:36.432Z,3.8,2026-09-29T17:13:36.433Z,2.9,3,-12,-1000,0,0,-1,2026-09-29T17:13:36.384Z,52.4,2026-09-29T17:13:36.286Z,150.4,2026-09-29T17:13:36.382Z,54.2,1790702015983708,375593,2026-09-29T17:13:35.892Z,544.2,,,,0,,,1,2026-09-29T17:13:36.384Z,51.8,16.57,0.01,99,33.0,0.0,0,1198652463,2026-09-29T17:13:36.284Z,151.8,5.254,0.016,1,2026-09-29T17:13:35.891Z,545.2,,,,,,,,,,,,,,,,,,,90,2164.09,2026-09-29T17:13:36.382Z,53.8,0,0,0,0,2026-09-29T17:13:36.383Z,53.1,1508,1514,1529,1493,255,2026-09-29T17:13:36.285Z,150.9,0.0,0.0,0.0,0.0,0.0,2026-09-29T17:13:36.285Z,151.4,2026-09-29T17:13:35.891Z,544.8,2026-09-29T17:13:35.990Z,446.2,2026-09-29T17:13:35.990Z,446.7,2026-09-29T17:13:35.989Z,447.2,2026-09-29T17:13:35.892Z,543.8
2026-09-29T17:13:36.492Z,2026-09-29T17:13:36.585Z,2026-09-29T11:13:36.585-06:00,4.45,89,False,POSHOLD,1,0,-0.323721,0.744845,90.417897,0.002292,-0.031513,-0.05042,39.0187732,-104.8936034,2164.08,0.486,0.0,0.0,0.0,90.41,-0.011,0.0,39.0187733,-104.8936034,2165.88,0.01,52.12,31,6,0.68,1.25,0.004,0.011,-0.01,0,0.039227,-0.127486,-9.816457,0.0,0.0,0.0,-438,310,745,16.561,0.01,1,99,,1000,1000,1000,1000,0.022,0.022,0.021,0,0,0,831,0.012,0.0017,0.0305,0.0001,784.581,45.34,-180.0,0.0,0.0,2026-09-29T17:13:36.481Z,0.002,13.175,0,243.1,0.0,16.0,89.0,3.0,2026-09-29T17:13:35.831Z,660.9,2026-09-29T17:13:36.487Z,5.1,2026-09-29T17:13:36.488Z,4.2,1,-13,-1000,0,0,0,2026-09-29T17:13:36.483Z,9.2,2026-09-29T17:13:36.486Z,6.5,2026-09-29T17:13:36.481Z,10.9,1790702015983708,375593,2026-09-29T17:13:35.892Z,600.3,,,,0,,,1,2026-09-29T17:13:36.484Z,8.4,16.561,0.01,99,32.0,0.0,0,1198652463,2026-09-29T17:13:36.484Z,7.9,5.254,0.016,1,2026-09-29T17:13:35.891Z,601.3,,,,,,,,,,,,,,,,,,,90,2164.08,2026-09-29T17:13:36.482Z,10.4,0,0,0,0,2026-09-29T17:13:36.483Z,9.8,1508,1514,1529,1493,255,2026-09-29T17:13:36.485Z,7.0,0.0,0.0,0.0,0.0,0.0,2026-09-29T17:13:36.485Z,7.5,2026-09-29T17:13:35.891Z,600.8,2026-09-29T17:13:36.492Z,0.3,2026-09-29T17:13:36.491Z,0.9,2026-09-29T17:13:36.491Z,1.3,2026-09-29T17:13:35.892Z,599.9
2026-09-29T17:13:36.536Z,2026-09-29T17:13:36.629Z,2026-09-29T11:13:36.629-06:00,4.5,90,False,POSHOLD,1,0,-0.323721,0.745418,90.417897,0.007448,0.004584,-0.003438,39.0187732,-104.8936034,2164.08,0.486,0.0,0.0,0.0,90.41,-0.011,0.0,39.0187733,-104.8936034,2165.88,0.01,52.12,31,6,0.68,1.25,0.004,0.011,-0.01,0,0.039227,-0.127486,-9.80665,0.0,0.0,0.0,-443,302,752,16.561,0.01,1,99,,1000,1000,1000,1000,0.022,0.022,0.021,0,0,0,831,0.012,0.0017,0.0305,0.0001,784.581,45.34,-180.0,0.0,0.0,2026-09-29T17:13:36.531Z,0.003,7.429,0,293.1,0.0,16.0,89.0,3.0,2026-09-29T17:13:35.831Z,705.2,2026-09-29T17:13:36.532Z,4.2,2026-09-29T17:13:36.533Z,3.3,1,-13,-1000,0,0,0,2026-09-29T17:13:36.483Z,53.4,2026-09-29T17:13:36.486Z,50.7,2026-09-29T17:13:36.481Z,55.2,1790702015983708,375593,2026-09-29T17:13:35.892Z,644.6,,,,0,,,1,2026-09-29T17:13:36.484Z,52.7,16.561,0.01,99,32.0,0.0,0,1198652463,2026-09-29T17:13:36.484Z,52.2,5.254,0.016,1,2026-09-29T17:13:35.891Z,645.6,,,,,,,,,,,,,,,,,,,90,2164.08,2026-09-29T17:13:36.482Z,54.7,0,0,0,0,2026-09-29T17:13:36.483Z,54.0,1508,1514,1529,1493,255,2026-09-29T17:13:36.485Z,51.2,0.0,0.0,0.0,0.0,0.0,2026-09-29T17:13:36.485Z,51.7,2026-09-29T17:13:35.891Z,645.1,2026-09-29T17:13:36.492Z,44.6,2026-09-29T17:13:36.491Z,45.1,2026-09-29T17:13:36.491Z,45.6,2026-09-29T17:13:35.892Z,644.1
