time_utc,time_gps_utc,time_local,elapsed_s,sample_n,armed,flight_mode,mission_seq,wp_dist_m,roll_deg,pitch_deg,yaw_deg,roll_rate_deg_s,pitch_rate_deg_s,yaw_rate_deg_s,lat_deg,lon_deg,alt_msl_m,alt_rel_m,vel_n_m_s,vel_e_m_s,vel_d_m_s,heading_deg,north_m,east_m,gps_lat_deg,gps_lon_deg,gps_alt_m,gps_speed_m_s,gps_course_deg,gps_sats,gps_fix_type,gps_hdop,gps_vdop,groundspeed_m_s,airspeed_m_s,climb_m_s,throttle_pct,acc_x_m_s2,acc_y_m_s2,acc_z_m_s2,gyro_x_rad_s,gyro_y_rad_s,gyro_z_rad_s,mag_x_mgauss,mag_y_mgauss,mag_z_mgauss,batt_voltage_v,batt_current_a,batt_consumed_mah,batt_remaining_pct,batt_temp_c,motor1_us,motor2_us,motor3_us,motor4_us,vib_x_m_s2,vib_y_m_s2,vib_z_m_s2,clip_0,clip_1,clip_2,ekf_flags,ekf_vel_var,ekf_pos_horiz_var,ekf_pos_vert_var,ekf_compass_var,baro_press_hpa,baro_temp_c,ap_wind_dir_deg,ap_wind_speed_m_s,ap_wind_speed_z_m_s,Sched_UTC,Sched_Error_ms,Cycle_ms,Slots_Skipped,Temp_Age_ms,HB_Armed,HB_CustomMode,HB_BaseMode,HB_SystemStatus,HB_rx_UTC,HB_Age_ms,ATT_rx_UTC,ATT_Age_ms,IMU_rx_UTC,IMU_Age_ms,RIMU_Xacc,RIMU_Yacc,RIMU_Zacc,RIMU_Xgyro,RIMU_Ygyro,RIMU_Zgyro,RIMU_rx_UTC,RIMU_Age_ms,GPS_rx_UTC,GPS_Age_ms,POS_rx_UTC,POS_Age_ms,SYST_UnixUsec,SYST_BootMs,SYST_rx_UTC,SYST_Age_ms,BAT_Cell2_V,BAT_Cell3_V,BAT_Cell4_V,BAT_Energy_hJ,BAT_Temp_cdegC,BAT_TimeRemaining_s,BAT_ChargeState,BAT_rx_UTC,BAT_Age_ms,SYS_Voltage_V,SYS_Current_A,SYS_BatteryRemaining_pct,SYS_Load_pct,SYS_DropRateComm,SYS_ErrorsComm,SYS_SensorsHealth,SYS_rx_UTC,SYS_Age_ms,PWR_Vcc_V,PWR_Vservo_V,PWR_Flags,PWR_rx_UTC,PWR_Age_ms,ESC1_RPM,ESC2_RPM,ESC3_RPM,ESC4_RPM,ESC1_V,ESC2_V,ESC3_V,ESC4_V,ESC1_A,ESC2_A,ESC3_A,ESC4_A,ESC1_degC,ESC2_degC,ESC3_degC,ESC4_degC,ESC_rx_UTC,ESC_Age_ms,VFR_Heading_deg,VFR_Alt_m,VFR_rx_UTC,VFR_Age_ms,SRV5_us,SRV6_us,SRV7_us,SRV8_us,SRV_rx_UTC,SRV_Age_ms,RC1_us,RC2_us,RC3_us,RC4_us,RC_RSSI,RC_rx_UTC,RC_Age_ms,NAV_RollTarget_deg,NAV_PitchTarget_deg,NAV_AltError_m,NAV_AspdError_m_s,NAV_XtrackError_m,NAV_rx_UTC,NAV_Age_ms,MIS_rx_UTC,MIS_Age_ms,VIB_rx_UTC,VIB_Age_ms,EKF_rx_UTC,EKF_Age_ms,BARO_rx_UTC,BARO_Age_ms,WND_rx_UTC,WND_Age_ms
2026-09-29T16:51:19.755Z,2026-09-29T16:51:19.858Z,2026-09-29T10:51:19.858-06:00,0.0,0,False,,0,0,-0.547748,0.423989,-131.753937,-0.005157,-0.01547,0.073912,39.0187759,-104.8936044,2167.35,1.97,0.0,0.0,0.0,228.25,0.0,0.0,39.0187759,-104.8936044,2165.9,0.01,116.56,32,6,0.7,1.25,0.002,0.005,-0.004,0,-0.078453,0.0,-9.80665,0.002,0.001,0.0,49,-197,141,15.598,0.01,748,77,,1000,1000,1000,1000,0.022,0.023,0.023,0,0,0,831,0.0041,0.0015,0.009,0.0265,784.821,46.08,-180.0,0.0,0.0,2026-09-29T16:51:19.716Z,0.042,40.79,0,-39.4,0,0,0,0,2026-09-29T16:51:19.741Z,14.7,2026-09-29T16:51:19.748Z,7.2,2026-09-29T16:51:19.749Z,6.6,-10,0,-1000,0,0,0,2026-09-29T16:51:19.752Z,3.4,2026-09-29T16:51:19.754Z,1.5,2026-09-29T16:51:19.751Z,4.6,1790700679678839,1932467,2026-09-29T16:51:19.727Z,28.4,,,,400,,,1,2026-09-29T16:51:19.753Z,2.9,15.597,0.01,77,27.6,0.0,0,1198627887,2026-09-29T16:51:19.753Z,2.6,5.232,0.016,1,2026-09-29T16:51:19.724Z,32.0,,,,,,,,,,,,,,,,,,,228,2167.35,2026-09-29T16:51:19.751Z,4.2,0,0,0,0,2026-09-29T16:51:19.752Z,3.8,1508,1514,1529,1493,255,2026-09-29T16:51:19.754Z,1.9,0.03,0.06,0.0,0.0,0.03,2026-09-29T16:51:19.753Z,2.2,2026-09-29T16:51:19.734Z,22.0,2026-09-29T16:51:19.746Z,9.8,2026-09-29T16:51:19.745Z,10.4,2026-09-29T16:51:19.744Z,11.7,2026-09-29T16:51:19.745Z,11.0
2026-09-29T16:51:19.770Z,2026-09-29T16:51:19.873Z,2026-09-29T10:51:19.873-06:00,0.05,1,False,,0,0,-0.547748,0.424562,-131.756229,-0.016043,0.013178,-0.004584,39.0187759,-104.8936044,2167.35,1.97,0.0,0.0,0.0,228.25,0.0,0.0,39.0187759,-104.8936044,2165.9,0.01,116.56,32,6,0.7,1.25,0.002,0.005,-0.004,0,-0.078453,0.009807,-9.80665,0.001,0.0,0.0,50,-196,141,15.598,0.01,748,77,,1000,1000,1000,1000,0.022,0.023,0.023,0,0,0,831,0.0041,0.0015,0.009,0.0265,784.821,46.08,-180.0,0.0,0.0,2026-09-29T16:51:19.766Z,0.004,5.009,0,10.5,0,0,0,0,2026-09-29T16:51:19.741Z,28.9,2026-09-29T16:51:19.767Z,2.6,2026-09-29T16:51:19.768Z,2.0,-10,0,-1000,0,0,0,2026-09-29T16:51:19.752Z,17.6,2026-09-29T16:51:19.754Z,15.7,2026-09-29T16:51:19.751Z,18.8,1790700679678839,1932467,2026-09-29T16:51:19.727Z,42.6,,,,400,,,1,2026-09-29T16:51:19.753Z,17.1,15.597,0.01,77,27.6,0.0,0,1198627887,2026-09-29T16:51:19.753Z,16.8,5.232,0.016,1,2026-09-29T16:51:19.724Z,46.2,,,,,,,,,,,,,,,,,,,228,2167.35,2026-09-29T16:51:19.751Z,18.4,0,0,0,0,2026-09-29T16:51:19.752Z,18.0,1508,1514,1529,1493,255,2026-09-29T16:51:19.754Z,16.1,0.03,0.06,0.0,0.0,0.03,2026-09-29T16:51:19.753Z,16.4,2026-09-29T16:51:19.734Z,36.2,2026-09-29T16:51:19.746Z,24.0,2026-09-29T16:51:19.745Z,24.6,2026-09-29T16:51:19.744Z,25.9,2026-09-29T16:51:19.745Z,25.2
2026-09-29T16:51:19.820Z,2026-09-29T16:51:19.923Z,2026-09-29T10:51:19.923-06:00,0.1,2,False,,0,0,-0.548321,0.425135,-131.757948,-0.020054,0.022918,0.070474,39.0187759,-104.8936044,2167.35,1.97,0.0,0.0,0.0,228.25,0.0,0.0,39.0187759,-104.8936044,2165.9,0.01,116.56,32,6,0.7,1.25,0.002,0.005,-0.004,0,-0.068647,0.0,-9.80665,0.002,0.0,0.0,50,-196,141,15.598,0.01,748,77,,1000,1000,1000,1000,0.022,0.023,0.023,0,0,0,831,0.0041,0.0015,0.009,0.0265,784.821,46.08,-180.0,0.0,0.0,2026-09-29T16:51:19.816Z,0.002,4.836,0,60.5,0,0,0,0,2026-09-29T16:51:19.741Z,78.8,2026-09-29T16:51:19.817Z,2.6,2026-09-29T16:51:19.818Z,2.0,-10,0,-1000,0,0,0,2026-09-29T16:51:19.752Z,67.5,2026-09-29T16:51:19.754Z,65.6,2026-09-29T16:51:19.751Z,68.6,1790700679678839,1932467,2026-09-29T16:51:19.727Z,92.5,,,,400,,,1,2026-09-29T16:51:19.753Z,67.0,15.597,0.01,77,27.6,0.0,0,1198627887,2026-09-29T16:51:19.753Z,66.7,5.232,0.016,1,2026-09-29T16:51:19.724Z,96.1,,,,,,,,,,,,,,,,,,,228,2167.35,2026-09-29T16:51:19.751Z,68.3,0,0,0,0,2026-09-29T16:51:19.752Z,67.9,1508,1514,1529,1493,255,2026-09-29T16:51:19.754Z,66.0,0.03,0.06,0.0,0.0,0.03,2026-09-29T16:51:19.753Z,66.3,2026-09-29T16:51:19.734Z,86.1,2026-09-29T16:51:19.746Z,73.9,2026-09-29T16:51:19.745Z,74.5,2026-09-29T16:51:19.744Z,75.8,2026-09-29T16:51:19.745Z,75.1
2026-09-29T16:51:19.872Z,2026-09-29T16:51:19.975Z,2026-09-29T10:51:19.975-06:00,0.15,3,False,,0,0,-0.548894,0.425708,-131.760239,0.014324,-0.0,0.043545,39.0187759,-104.8936044,2167.35,1.971,0.0,0.0,0.0,228.25,0.0,0.0,39.0187759,-104.8936044,2165.9,0.01,116.56,32,6,0.7,1.25,0.003,0.005,-0.004,0,-0.068647,0.0,-9.816457,0.002,0.0,0.0,49,-196,141,15.597,0.01,748,77,,1000,1000,1000,1000,0.022,0.023,0.023,0,0,0,831,0.0041,0.0015,0.009,0.0265,784.821,46.08,-180.0,0.0,0.0,2026-09-29T16:51:19.866Z,0.002,7.323,0,110.5,0,0,0,0,2026-09-29T16:51:19.741Z,131.3,2026-09-29T16:51:19.869Z,3.0,2026-09-29T16:51:19.870Z,2.4,-11,0,-1000,0,0,0,2026-09-29T16:51:19.868Z,4.4,2026-09-29T16:51:19.754Z,118.1,2026-09-29T16:51:19.866Z,5.7,1790700679678839,1932467,2026-09-29T16:51:19.727Z,145.0,,,,400,,,1,2026-09-29T16:51:19.868Z,4.0,15.597,0.01,77,27.6,0.0,0,1198627887,2026-09-29T16:51:19.753Z,119.1,5.232,0.016,1,2026-09-29T16:51:19.724Z,148.6,,,,,,,,,,,,,,,,,,,228,2167.35,2026-09-29T16:51:19.867Z,5.3,0,0,0,0,2026-09-29T16:51:19.867Z,4.9,1508,1514,1529,1493,255,2026-09-29T16:51:19.754Z,118.5,0.03,0.06,0.0,0.0,0.03,2026-09-29T16:51:19.753Z,118.8,2026-09-29T16:51:19.734Z,138.5,2026-09-29T16:51:19.746Z,126.4,2026-09-29T16:51:19.745Z,127.0,2026-09-29T16:51:19.744Z,128.3,2026-09-29T16:51:19.745Z,127.6
2026-09-29T16:51:19.920Z,2026-09-29T16:51:20.023Z,2026-09-29T10:51:20.023-06:00,0.2,4,False,,0,0,-0.550039,0.426281,-131.761385,-0.003438,0.004011,0.097403,39.0187759,-104.8936044,2167.35,1.971,0.0,0.0,0.0,228.25,0.0,0.0,39.0187759,-104.8936044,2165.9,0.01,116.56,32,6,0.7,1.25,0.003,0.005,-0.004,0,-0.068647,0.0,-9.80665,0.001,0.0,0.0,49,-196,141,15.597,0.01,748,77,,1000,1000,1000,1000,0.022,0.023,0.023,0,0,0,831,0.0041,0.0015,0.009,0.0265,784.821,46.08,-180.0,0.0,0.0,2026-09-29T16:51:19.916Z,0.002,4.823,0,160.5,0,0,0,0,2026-09-29T16:51:19.741Z,178.8,2026-09-29T16:51:19.917Z,2.6,2026-09-29T16:51:19.918Z,2.0,-11,0,-1000,0,0,0,2026-09-29T16:51:19.868Z,51.9,2026-09-29T16:51:19.754Z,165.6,2026-09-29T16:51:19.866Z,53.2,1790700679678839,1932467,2026-09-29T16:51:19.727Z,192.5,,,,400,,,1,2026-09-29T16:51:19.868Z,51.5,15.597,0.01,77,27.6,0.0,0,1198627887,2026-09-29T16:51:19.753Z,166.6,5.232,0.016,1,2026-09-29T16:51:19.724Z,196.1,,,,,,,,,,,,,,,,,,,228,2167.35,2026-09-29T16:51:19.867Z,52.8,0,0,0,0,2026-09-29T16:51:19.867Z,52.4,1508,1514,1529,1493,255,2026-09-29T16:51:19.754Z,166.0,0.03,0.06,0.0,0.0,0.03,2026-09-29T16:51:19.753Z,166.3,2026-09-29T16:51:19.734Z,186.1,2026-09-29T16:51:19.746Z,173.9,2026-09-29T16:51:19.745Z,174.5,2026-09-29T16:51:19.744Z,175.8,2026-09-29T16:51:19.745Z,175.1
2026-09-29T16:51:19.973Z,2026-09-29T16:51:20.076Z,2026-09-29T10:51:20.076-06:00,0.25,5,False,,0,0,-0.550039,0.426854,-131.76425,-0.014897,0.007448,0.005157,39.0187759,-104.8936044,2167.35,1.973,0.0,0.0,0.0,228.24,0.0,0.0,39.0187759,-104.8936044,2165.9,0.01,90.0,32,6,0.7,1.25,0.003,0.005,-0.004,0,-0.078453,0.0,-9.80665,0.002,0.0,0.0,50,-196,141,15.598,0.01,748,77,,1000,1000,1000,1000,0.022,0.023,0.023,0,0,0,831,0.0041,0.0015,0.009,0.0265,784.821,46.08,-180.0,0.0,0.0,2026-09-29T16:51:19.966Z,0.002,8.43,0,210.5,0,0,0,0,2026-09-29T16:51:19.741Z,232.2,2026-09-29T16:51:19.971Z,2.6,2026-09-29T16:51:19.971Z,2.0,-10,0,-1000,0,-1,0,2026-09-29T16:51:19.968Z,5.4,2026-09-29T16:51:19.970Z,3.6,2026-09-29T16:51:19.966Z,6.6,1790700679678839,1932467,2026-09-29T16:51:19.727Z,245.9,,,,400,,,1,2026-09-29T16:51:19.968Z,4.9,15.6,0.01,77,27.9,0.0,0,1198627887,2026-09-29T16:51:19.969Z,4.6,5.232,0.016,1,2026-09-29T16:51:19.724Z,249.5,,,,,,,,,,,,,,,,,,,228,2167.35,2026-09-29T16:51:19.967Z,6.3,0,0,0,0,2026-09-29T16:51:19.967Z,5.8,1508,1514,1529,1493,255,2026-09-29T16:51:19.969Z,3.9,0.03,0.06,0.0,0.0,0.03,2026-09-29T16:51:19.969Z,4.3,2026-09-29T16:51:19.734Z,239.5,2026-09-29T16:51:19.746Z,227.3,2026-09-29T16:51:19.745Z,227.9,2026-09-29T16:51:19.744Z,229.2,2026-09-29T16:51:19.745Z,228.5
2026-09-29T16:51:20.020Z,2026-09-29T16:51:20.123Z,2026-09-29T10:51:20.123-06:00,0.3,6,False,,0,0,-0.551185,0.426854,-131.765969,-0.006875,-0.012032,0.037242,39.0187759,-104.8936044,2167.35,1.973,0.0,0.0,0.0,228.24,0.0,0.0,39.0187759,-104.8936044,2165.9,0.01,90.0,32,6,0.7,1.25,0.003,0.005,-0.004,0,-0.068647,0.0,-9.816457,0.002,0.0,0.0,50,-196,141,15.598,0.01,748,77,,1000,1000,1000,1000,0.022,0.023,0.023,0,0,0,831,0.0041,0.0015,0.009,0.0265,784.821,46.08,-180.0,0.0,0.0,2026-09-29T16:51:20.016Z,0.002,4.853,0,260.5,0,0,0,0,2026-09-29T16:51:19.741Z,278.8,2026-09-29T16:51:20.017Z,2.6,2026-09-29T16:51:20.018Z,2.0,-10,0,-1000,0,-1,0,2026-09-29T16:51:19.968Z,52.0,2026-09-29T16:51:19.970Z,50.2,2026-09-29T16:51:19.966Z,53.3,1790700679678839,1932467,2026-09-29T16:51:19.727Z,292.6,,,,400,,,1,2026-09-29T16:51:19.968Z,51.5,15.6,0.01,77,27.9,0.0,0,1198627887,2026-09-29T16:51:19.969Z,51.2,5.232,0.016,1,2026-09-29T16:51:19.724Z,296.1,,,,,,,,,,,,,,,,,,,228,2167.35,2026-09-29T16:51:19.967Z,52.9,0,0,0,0,2026-09-29T16:51:19.967Z,52.4,1508,1514,1529,1493,255,2026-09-29T16:51:19.969Z,50.5,0.03,0.06,0.0,0.0,0.03,2026-09-29T16:51:19.969Z,50.9,2026-09-29T16:51:19.734Z,286.1,2026-09-29T16:51:19.746Z,273.9,2026-09-29T16:51:19.745Z,274.6,2026-09-29T16:51:19.744Z,275.8,2026-09-29T16:51:19.745Z,275.2
2026-09-29T16:51:20.072Z,2026-09-29T16:51:20.175Z,2026-09-29T10:51:20.175-06:00,0.35,7,False,,0,0,-0.550612,0.426281,-131.768261,0.008594,0.001146,0.037242,39.0187759,-104.8936044,2167.35,1.974,0.0,0.0,0.0,228.24,0.0,0.0,39.0187759,-104.8936044,2165.9,0.01,90.0,32,6,0.7,1.25,0.004,0.005,-0.004,0,-0.068647,0.0,-9.816457,0.002,0.0,0.0,50,-196,141,15.6,0.01,748,77,,1000,1000,1000,1000,0.022,0.023,0.023,0,0,0,831,0.0041,0.0015,0.009,0.0265,784.821,46.08,-180.0,0.0,0.0,2026-09-29T16:51:20.066Z,0.002,6.92,0,310.5,0,0,0,0,2026-09-29T16:51:19.741Z,330.9,2026-09-29T16:51:20.069Z,2.6,2026-09-29T16:51:20.070Z,2.0,-10,0,-1001,0,-1,0,2026-09-29T16:51:20.068Z,4.0,2026-09-29T16:51:19.970Z,102.3,2026-09-29T16:51:20.066Z,5.3,1790700679678839,1932467,2026-09-29T16:51:19.727Z,344.6,,,,400,,,1,2026-09-29T16:51:20.068Z,3.5,15.6,0.01,77,27.9,0.0,0,1198627887,2026-09-29T16:51:19.969Z,103.3,5.232,0.016,1,2026-09-29T16:51:19.724Z,348.2,,,,,,,,,,,,,,,,,,,228,2167.35,2026-09-29T16:51:20.067Z,4.9,0,0,0,0,2026-09-29T16:51:20.067Z,4.4,1508,1514,1529,1493,255,2026-09-29T16:51:19.969Z,102.6,0.03,0.06,0.0,0.0,0.03,2026-09-29T16:51:19.969Z,103.0,2026-09-29T16:51:19.734Z,338.2,2026-09-29T16:51:19.746Z,326.0,2026-09-29T16:51:19.745Z,326.6,2026-09-29T16:51:19.744Z,327.9,2026-09-29T16:51:19.745Z,327.2
2026-09-29T16:51:20.120Z,2026-09-29T16:51:20.223Z,2026-09-29T10:51:20.223-06:00,0.4,8,False,,0,0,-0.550612,0.426281,-131.771126,0.009167,0.012605,-0.001719,39.0187759,-104.8936044,2167.35,1.974,0.0,0.0,0.0,228.24,0.0,0.0,39.0187759,-104.8936044,2165.9,0.01,90.0,32,6,0.7,1.25,0.004,0.005,-0.004,0,-0.078453,0.0,-9.80665,0.002,0.001,0.0,50,-196,141,15.6,0.01,748,77,,1000,1000,1000,1000,0.022,0.023,0.023,0,0,0,831,0.0041,0.0015,0.009,0.0265,784.821,46.08,-180.0,0.0,0.0,2026-09-29T16:51:20.116Z,0.002,4.835,0,360.5,0,0,0,0,2026-09-29T16:51:19.741Z,378.8,2026-09-29T16:51:20.117Z,2.6,2026-09-29T16:51:20.118Z,2.0,-10,0,-1001,0,-1,0,2026-09-29T16:51:20.068Z,51.9,2026-09-29T16:51:19.970Z,150.2,2026-09-29T16:51:20.066Z,53.2,1790700679678839,1932467,2026-09-29T16:51:19.727Z,392.5,,,,400,,,1,2026-09-29T16:51:20.068Z,51.5,15.6,0.01,77,27.9,0.0,0,1198627887,2026-09-29T16:51:19.969Z,151.2,5.232,0.016,1,2026-09-29T16:51:19.724Z,396.1,,,,,,,,,,,,,,,,,,,228,2167.35,2026-09-29T16:51:20.067Z,52.8,0,0,0,0,2026-09-29T16:51:20.067Z,52.4,1508,1514,1529,1493,255,2026-09-29T16:51:19.969Z,150.5,0.03,0.06,0.0,0.0,0.03,2026-09-29T16:51:19.969Z,150.9,2026-09-29T16:51:19.734Z,386.1,2026-09-29T16:51:19.746Z,373.9,2026-09-29T16:51:19.745Z,374.5,2026-09-29T16:51:19.744Z,375.8,2026-09-29T16:51:19.745Z,375.1
2026-09-29T16:51:20.174Z,2026-09-29T16:51:20.277Z,2026-09-29T10:51:20.277-06:00,0.45,9,False,,0,0,-0.550612,0.427427,-131.772844,0.001146,0.037242,0.034377,39.0187759,-104.8936044,2167.35,1.974,0.0,0.0,0.0,228.23,0.0,0.0,39.018776,-104.8936044,2165.9,0.0,128.65,32,6,0.7,1.25,0.005,0.006,-0.004,0,-0.068647,0.009807,-9.826263,0.002,0.0,0.0,50,-196,141,15.581,0.01,748,77,,1000,1000,1000,1000,0.024,0.024,0.027,0,0,0,831,0.0141,0.0032,0.0041,0.0245,784.795,46.08,-180.0,0.0,0.0,2026-09-29T16:51:20.166Z,0.002,9.647,0,410.5,0,0,0,0,2026-09-29T16:51:19.741Z,433.6,2026-09-29T16:51:20.171Z,3.6,2026-09-29T16:51:20.172Z,2.9,-11,-1,-1001,0,0,0,2026-09-29T16:51:20.168Z,6.8,2026-09-29T16:51:20.170Z,4.5,2026-09-29T16:51:20.166Z,8.0,1790700679678839,1932467,2026-09-29T16:51:19.727Z,447.3,,,,400,,,1,2026-09-29T16:51:20.168Z,6.3,15.588,0.0,77,28.5,0.0,0,1198627887,2026-09-29T16:51:20.169Z,5.6,5.232,0.016,1,2026-09-29T16:51:19.724Z,450.9,,,,,,,,,,,,,,,,,,,228,2167.35,2026-09-29T16:51:20.167Z,7.7,0,0,0,0,2026-09-29T16:51:20.167Z,7.2,1508,1514,1529,1493,255,2026-09-29T16:51:20.170Z,4.9,0.03,0.06,0.0,0.0,0.03,2026-09-29T16:51:20.169Z,5.3,2026-09-29T16:51:19.734Z,440.9,2026-09-29T16:51:20.174Z,0.2,2026-09-29T16:51:20.174Z,0.6,2026-09-29T16:51:20.174Z,0.9,2026-09-29T16:51:19.745Z,429.9
2026-09-29T16:51:20.220Z,2026-09-29T16:51:20.323Z,2026-09-29T10:51:20.323-06:00,0.5,10,False,,0,0,-0.551185,0.426854,-131.77399,-0.000573,-0.012605,0.044118,39.0187759,-104.8936044,2167.35,1.974,0.0,0.0,0.0,228.23,0.0,0.0,39.018776,-104.8936044,2165.9,0.0,128.65,32,6,0.7,1.25,0.005,0.006,-0.004,0,-0.078453,0.0,-9.816457,0.002,0.001,0.0,50,-196,141,15.581,0.01,748,77,,1000,1000,1000,1000,0.024,0.024,0.027,0,0,0,831,0.0141,0.0032,0.0041,0.0245,784.795,46.08,-180.0,0.0,0.0,2026-09-29T16:51:20.216Z,0.002,4.828,0,460.5,0,0,0,0,2026-09-29T16:51:19.741Z,478.8,2026-09-29T16:51:20.217Z,2.6,2026-09-29T16:51:20.218Z,2.0,-11,-1,-1001,0,0,0,2026-09-29T16:51:20.168Z,52.0,2026-09-29T16:51:20.170Z,49.7,2026-09-29T16:51:20.166Z,53.2,1790700679678839,1932467,2026-09-29T16:51:19.727Z,492.5,,,,400,,,1,2026-09-29T16:51:20.168Z,51.5,15.588,0.0,77,28.5,0.0,0,1198627887,2026-09-29T16:51:20.169Z,50.8,5.232,0.016,1,2026-09-29T16:51:19.724Z,496.1,,,,,,,,,,,,,,,,,,,228,2167.35,2026-09-29T16:51:20.167Z,52.9,0,0,0,0,2026-09-29T16:51:20.167Z,52.4,1508,1514,1529,1493,255,2026-09-29T16:51:20.170Z,50.1,0.03,0.06,0.0,0.0,0.03,2026-09-29T16:51:20.169Z,50.5,2026-09-29T16:51:19.734Z,486.0,2026-09-29T16:51:20.174Z,45.4,2026-09-29T16:51:20.174Z,45.7,2026-09-29T16:51:20.174Z,46.1,2026-09-29T16:51:19.745Z,475.1
2026-09-29T16:51:20.272Z,2026-09-29T16:51:20.375Z,2026-09-29T10:51:20.375-06:00,0.55,11,False,,0,0,-0.550612,0.426854,-131.775709,0.017189,0.018908,0.075057,39.0187759,-104.8936044,2167.35,1.974,0.0,0.0,0.0,228.23,0.0,0.0,39.018776,-104.8936044,2165.9,0.0,128.65,32,6,0.7,1.25,0.005,0.006,-0.004,0,-0.05884,0.0,-9.816457,0.001,0.0,0.0,49,-196,141,15.588,0.0,748,77,,1000,1000,1000,1000,0.024,0.024,0.027,0,0,0,831,0.0141,0.0032,0.0041,0.0245,784.795,46.08,-180.0,0.0,0.0,2026-09-29T16:51:20.266Z,0.002,6.866,0,510.5,0,0,0,0,2026-09-29T16:51:19.741Z,530.8,2026-09-29T16:51:20.269Z,2.6,2026-09-29T16:51:20.270Z,2.0,-11,0,-1000,0,-1,0,2026-09-29T16:51:20.268Z,4.0,2026-09-29T16:51:20.170Z,101.7,2026-09-29T16:51:20.266Z,5.3,1790700679678839,1932467,2026-09-29T16:51:19.727Z,544.6,,,,400,,,1,2026-09-29T16:51:20.268Z,3.5,15.588,0.0,77,28.5,0.0,0,1198627887,2026-09-29T16:51:20.169Z,102.8,5.232,0.016,1,2026-09-29T16:51:19.724Z,548.1,,,,,,,,,,,,,,,,,,,228,2167.35,2026-09-29T16:51:20.267Z,4.9,0,0,0,0,2026-09-29T16:51:20.267Z,4.4,1508,1514,1529,1493,255,2026-09-29T16:51:20.170Z,102.2,0.03,0.06,0.0,0.0,0.03,2026-09-29T16:51:20.169Z,102.5,2026-09-29T16:51:19.734Z,538.1,2026-09-29T16:51:20.174Z,97.5,2026-09-29T16:51:20.174Z,97.8,2026-09-29T16:51:20.174Z,98.2,2026-09-29T16:51:19.745Z,527.2
2026-09-29T16:51:20.320Z,2026-09-29T16:51:20.423Z,2026-09-29T10:51:20.423-06:00,0.6,12,False,,0,0,-0.551185,0.426854,-131.778574,-0.021772,0.012032,0.016616,39.0187759,-104.8936044,2167.35,1.974,0.0,0.0,0.0,228.23,0.0,0.0,39.018776,-104.8936044,2165.9,0.0,128.65,32,6,0.7,1.25,0.005,0.006,-0.004,0,-0.078453,0.0,-9.816457,0.002,0.0,0.0,49,-196,141,15.588,0.0,748,77,,1000,1000,1000,1000,0.024,0.024,0.027,0,0,0,831,0.0141,0.0032,0.0041,0.0245,784.795,46.08,-180.0,0.0,0.0,2026-09-29T16:51:20.316Z,0.002,5.312,0,560.5,0,0,0,0,2026-09-29T16:51:19.741Z,579.3,2026-09-29T16:51:20.318Z,2.7,2026-09-29T16:51:20.318Z,1.9,-11,0,-1000,0,-1,0,2026-09-29T16:51:20.268Z,52.5,2026-09-29T16:51:20.170Z,150.2,2026-09-29T16:51:20.266Z,53.7,1790700679678839,1932467,2026-09-29T16:51:19.727Z,593.0,,,,400,,,1,2026-09-29T16:51:20.268Z,52.0,15.588,0.0,77,28.5,0.0,0,1198627887,2026-09-29T16:51:20.169Z,151.3,5.232,0.016,1,2026-09-29T16:51:19.724Z,596.6,,,,,,,,,,,,,,,,,,,228,2167.35,2026-09-29T16:51:20.267Z,53.4,0,0,0,0,2026-09-29T16:51:20.267Z,52.9,1508,1514,1529,1493,255,2026-09-29T16:51:20.170Z,150.6,0.03,0.06,0.0,0.0,0.03,2026-09-29T16:51:20.169Z,150.9,2026-09-29T16:51:19.734Z,586.5,2026-09-29T16:51:20.174Z,145.9,2026-09-29T16:51:20.174Z,146.2,2026-09-29T16:51:20.174Z,146.6,2026-09-29T16:51:19.745Z,575.6
2026-09-29T16:51:20.373Z,2026-09-29T16:51:20.476Z,2026-09-29T10:51:20.476-06:00,0.65,13,False,,0,0,-0.551185,0.425708,-131.781439,0.003438,-0.004584,0.045837,39.0187759,-104.8936044,2167.35,1.976,0.0,0.0,0.0,228.22,0.0,0.0,39.018776,-104.8936044,2165.9,0.0,270.0,32,6,0.7,1.25,0.004,0.006,-0.004,0,-0.068647,0.0,-9.816457,0.002,0.0,0.0,50,-196,141,15.584,0.0,748,77,,1000,1000,1000,1000,0.024,0.024,0.027,0,0,0,831,0.0141,0.0032,0.0041,0.0245,784.795,46.08,-180.0,0.0,0.0,2026-09-29T16:51:20.366Z,0.002,8.323,0,610.5,0,0,0,0,2026-09-29T16:51:19.741Z,632.2,2026-09-29T16:51:20.371Z,2.6,2026-09-29T16:51:20.371Z,1.9,-10,0,-1001,0,-1,0,2026-09-29T16:51:20.368Z,5.4,2026-09-29T16:51:20.370Z,3.6,2026-09-29T16:51:20.366Z,6.6,1790700679678839,1932467,2026-09-29T16:51:19.727Z,645.9,,,,400,,,1,2026-09-29T16:51:20.368Z,4.9,15.593,0.01,77,27.4,0.0,0,1198627887,2026-09-29T16:51:20.369Z,4.6,5.232,0.016,1,2026-09-29T16:51:19.724Z,649.5,,,,,,,,,,,,,,,,,,,228,2167.35,2026-09-29T16:51:20.367Z,6.3,0,0,0,0,2026-09-29T16:51:20.367Z,5.8,1508,1514,1529,1493,255,2026-09-29T16:51:20.369Z,3.9,0.03,0.06,0.0,0.0,0.03,2026-09-29T16:51:20.369Z,4.3,2026-09-29T16:51:19.734Z,639.5,2026-09-29T16:51:20.174Z,198.8,2026-09-29T16:51:20.174Z,199.2,2026-09-29T16:51:20.174Z,199.5,2026-09-29T16:51:19.745Z,628.5
2026-09-29T16:51:20.420Z,2026-09-29T16:51:20.523Z,2026-09-29T10:51:20.523-06:00,0.7,14,False,,0,0,-0.550039,0.425135,-131.784877,0.032659,0.001146,0.013751,39.0187759,-104.8936044,2167.35,1.976,0.0,0.0,0.0,228.22,0.0,0.0,39.018776,-104.8936044,2165.9,0.0,270.0,32,6,0.7,1.25,0.004,0.006,-0.004,0,-0.078453,0.0,-9.80665,0.001,0.0,0.0,50,-196,141,15.584,0.0,748,77,,1000,1000,1000,1000,0.024,0.024,0.027,0,0,0,831,0.0141,0.0032,0.0041,0.0245,784.795,46.08,-180.0,0.0,0.0,2026-09-29T16:51:20.416Z,0.002,5.315,0,660.5,0,0,0,0,2026-09-29T16:51:19.741Z,679.3,2026-09-29T16:51:20.418Z,2.6,2026-09-29T16:51:20.418Z,1.9,-10,0,-1001,0,-1,0,2026-09-29T16:51:20.368Z,52.5,2026-09-29T16:51:20.370Z,50.6,2026-09-29T16:51:20.366Z,53.7,1790700679678839,1932467,2026-09-29T16:51:19.727Z,693.0,,,,400,,,1,2026-09-29T16:51:20.368Z,52.0,15.593,0.01,77,27.4,0.0,0,1198627887,2026-09-29T16:51:20.369Z,51.7,5.232,0.016,1,2026-09-29T16:51:19.724Z,696.6,,,,,,,,,,,,,,,,,,,228,2167.35,2026-09-29T16:51:20.367Z,53.4,0,0,0,0,2026-09-29T16:51:20.367Z,52.9,1508,1514,1529,1493,255,2026-09-29T16:51:20.369Z,51.0,0.03,0.06,0.0,0.0,0.03,2026-09-29T16:51:20.369Z,51.3,2026-09-29T16:51:19.734Z,686.5,2026-09-29T16:51:20.174Z,245.9,2026-09-29T16:51:20.174Z,246.2,2026-09-29T16:51:20.174Z,246.6,2026-09-29T16:51:19.745Z,675.6
2026-09-29T16:51:20.472Z,2026-09-29T16:51:20.575Z,2026-09-29T10:51:20.575-06:00,0.75,15,False,,0,0,-0.550039,0.425135,-131.787741,-0.001146,0.004011,0.023491,39.0187759,-104.8936044,2167.35,1.978,0.0,0.0,0.0,228.22,0.0,0.0,39.018776,-104.8936044,2165.9,0.0,270.0,32,6,0.7,1.25,0.004,0.006,-0.004,0,-0.068647,0.009807,-9.80665,0.001,0.001,0.0,50,-196,141,15.593,0.01,748,77,,1000,1000,1000,1000,0.024,0.024,0.027,0,0,0,831,0.0141,0.0032,0.0041,0.0245,784.795,46.08,-180.0,0.0,0.0,2026-09-29T16:51:20.466Z,0.002,6.892,0,710.5,0,0,0,0,2026-09-29T16:51:19.741Z,730.8,2026-09-29T16:51:20.469Z,2.6,2026-09-29T16:51:20.470Z,2.0,-10,0,-1002,0,0,0,2026-09-29T16:51:20.468Z,4.0,2026-09-29T16:51:20.370Z,102.2,2026-09-29T16:51:20.466Z,5.3,1790700679678839,1932467,2026-09-29T16:51:19.727Z,744.6,,,,400,,,1,2026-09-29T16:51:20.468Z,3.5,15.593,0.01,77,27.4,0.0,0,1198627887,2026-09-29T16:51:20.369Z,103.2,5.232,0.016,1,2026-09-29T16:51:19.724Z,748.1,,,,,,,,,,,,,,,,,,,228,2167.35,2026-09-29T16:51:20.467Z,4.9,0,0,0,0,2026-09-29T16:51:20.467Z,4.4,1508,1514,1529,1493,255,2026-09-29T16:51:20.369Z,102.5,0.03,0.06,0.0,0.0,0.03,2026-09-29T16:51:20.369Z,102.9,2026-09-29T16:51:19.734Z,738.1,2026-09-29T16:51:20.174Z,297.5,2026-09-29T16:51:20.174Z,297.8,2026-09-29T16:51:20.174Z,298.2,2026-09-29T16:51:19.745Z,727.2
2026-09-29T16:51:20.521Z,2026-09-29T16:51:20.624Z,2026-09-29T10:51:20.624-06:00,0.8,16,False,AUTO,0,0,-0.550039,0.425135,-131.791179,-0.018908,0.008021,0.018335,39.0187759,-104.8936044,2167.35,1.978,0.0,0.0,0.0,228.22,0.0,0.0,39.018776,-104.8936044,2165.9,0.0,270.0,32,6,0.7,1.25,0.004,0.006,-0.004,0,-0.078453,0.0,-9.816457,0.002,0.0,0.0,50,-196,141,15.593,0.01,748,77,,1000,1000,1000,1000,0.024,0.024,0.027,0,0,0,831,0.0141,0.0032,0.0041,0.0245,784.795,46.08,-180.0,0.0,0.0,2026-09-29T16:51:20.516Z,0.002,6.056,0,760.5,0,3,81,3,2026-09-29T16:51:20.517Z,3.6,2026-09-29T16:51:20.518Z,2.6,2026-09-29T16:51:20.519Z,1.9,-10,0,-1002,0,0,0,2026-09-29T16:51:20.468Z,53.1,2026-09-29T16:51:20.370Z,151.3,2026-09-29T16:51:20.466Z,54.4,1790700679678839,1932467,2026-09-29T16:51:19.727Z,793.7,,,,400,,,1,2026-09-29T16:51:20.468Z,52.6,15.593,0.01,77,27.4,0.0,0,1198627887,2026-09-29T16:51:20.369Z,152.3,5.232,0.016,1,2026-09-29T16:51:19.724Z,797.2,,,,,,,,,,,,,,,,,,,228,2167.35,2026-09-29T16:51:20.467Z,54.0,0,0,0,0,2026-09-29T16:51:20.467Z,53.5,1508,1514,1529,1493,255,2026-09-29T16:51:20.369Z,151.7,0.03,0.06,0.0,0.0,0.03,2026-09-29T16:51:20.369Z,152.0,2026-09-29T16:51:19.734Z,787.2,2026-09-29T16:51:20.174Z,346.6,2026-09-29T16:51:20.174Z,346.9,2026-09-29T16:51:20.174Z,347.3,2026-09-29T16:51:19.745Z,776.3
2026-09-29T16:51:20.575Z,2026-09-29T16:51:20.678Z,2026-09-29T10:51:20.678-06:00,0.85,17,False,AUTO,0,0,-0.549467,0.425708,-131.793471,-0.006303,0.017762,0.061306,39.0187759,-104.8936044,2167.35,1.978,0.0,0.0,0.0,228.21,0.0,0.0,39.0187759,-104.8936044,2165.91,0.0,139.39,32,6,0.7,1.25,0.004,0.005,-0.003,0,-0.068647,0.0,-9.80665,0.002,0.001,0.0,49,-196,141,15.59,0.02,748,77,,1000,1000,1000,1000,0.024,0.024,0.027,0,0,0,831,0.0141,0.0032,0.0041,0.0245,784.795,46.08,-180.0,0.0,0.0,2026-09-29T16:51:20.566Z,0.002,10.229,0,810.5,0,0,0,0,2026-09-29T16:51:20.573Z,1.6,2026-09-29T16:51:20.571Z,4.5,2026-09-29T16:51:20.571Z,3.9,-9,0,-1001,0,0,0,2026-09-29T16:51:20.568Z,7.3,2026-09-29T16:51:20.570Z,5.5,2026-09-29T16:51:20.566Z,8.6,1790700680681541,1933470,2026-09-29T16:51:20.575Z,0.6,,,,400,,,1,2026-09-29T16:51:20.568Z,6.9,15.595,0.01,77,29.0,0.0,0,1198627887,2026-09-29T16:51:20.569Z,6.5,5.243,0.012,1,2026-09-29T16:51:20.574Z,1.2,,,,,,,,,,,,,,,,,,,228,2167.35,2026-09-29T16:51:20.567Z,8.3,0,0,0,0,2026-09-29T16:51:20.567Z,7.8,1508,1514,1529,1493,255,2026-09-29T16:51:20.569Z,5.9,0.03,0.06,0.0,0.0,0.03,2026-09-29T16:51:20.569Z,6.2,2026-09-29T16:51:20.574Z,0.9,2026-09-29T16:51:20.174Z,400.8,2026-09-29T16:51:20.174Z,401.1,2026-09-29T16:51:20.174Z,401.5,2026-09-29T16:51:20.575Z,0.2
2026-09-29T16:51:20.620Z,2026-09-29T16:51:20.723Z,2026-09-29T10:51:20.723-06:00,0.9,18,False,AUTO,0,0,-0.550612,0.425135,-131.794617,-0.033805,0.010313,0.074485,39.0187759,-104.8936044,2167.35,1.978,0.0,0.0,0.0,228.21,0.0,0.0,39.0187759,-104.8936044,2165.91,0.0,139.39,32,6,0.7,1.25,0.004,0.005,-0.003,0,-0.078453,0.0,-9.80665,0.001,0.001,0.0,49,-196,141,15.59,0.02,748,77,,1000,1000,1000,1000,0.024,0.024,0.027,0,0,0,831,0.0141,0.0032,0.0041,0.0245,784.795,46.08,-180.0,0.0,0.0,2026-09-29T16:51:20.616Z,0.002,4.875,0,860.5,0,0,0,0,2026-09-29T16:51:20.573Z,46.2,2026-09-29T16:51:20.617Z,2.6,2026-09-29T16:51:20.618Z,2.0,-9,0,-1001,0,0,0,2026-09-29T16:51:20.568Z,52.0,2026-09-29T16:51:20.570Z,50.2,2026-09-29T16:51:20.566Z,53.3,1790700680681541,1933470,2026-09-29T16:51:20.575Z,45.2,,,,400,,,1,2026-09-29T16:51:20.568Z,51.5,15.595,0.01,77,29.0,0.0,0,1198627887,2026-09-29T16:51:20.569Z,51.2,5.243,0.012,1,2026-09-29T16:51:20.574Z,45.9,,,,,,,,,,,,,,,,,,,228,2167.35,2026-09-29T16:51:20.567Z,52.9,0,0,0,0,2026-09-29T16:51:20.567Z,52.4,1508,1514,1529,1493,255,2026-09-29T16:51:20.569Z,50.5,0.03,0.06,0.0,0.0,0.03,2026-09-29T16:51:20.569Z,50.9,2026-09-29T16:51:20.574Z,45.5,2026-09-29T16:51:20.174Z,445.5,2026-09-29T16:51:20.174Z,445.8,2026-09-29T16:51:20.174Z,446.2,2026-09-29T16:51:20.575Z,44.9
2026-09-29T16:51:20.673Z,2026-09-29T16:51:20.776Z,2026-09-29T10:51:20.776-06:00,0.95,19,False,AUTO,0,0,-0.550612,0.425708,-131.798628,-0.003438,0.019481,-0.026929,39.0187759,-104.8936044,2167.35,1.979,0.0,0.0,0.0,228.21,0.0,0.0,39.0187759,-104.8936044,2165.91,0.0,139.39,32,6,0.7,1.25,0.004,0.005,-0.003,0,-0.068647,0.0,-9.80665,0.002,0.0,0.0,49,-196,141,15.595,0.01,748,77,,1000,1000,1000,1000,0.027,0.031,0.034,0,0,0,831,0.0093,0.003,0.0137,0.0253,784.819,46.09,-180.0,0.0,0.0,2026-09-29T16:51:20.666Z,0.005,8.193,0,910.5,0,0,0,0,2026-09-29T16:51:20.573Z,99.5,2026-09-29T16:51:20.669Z,3.6,2026-09-29T16:51:20.670Z,2.9,-10,0,-1001,0,0,0,2026-09-29T16:51:20.668Z,5.0,2026-09-29T16:51:20.570Z,103.5,2026-09-29T16:51:20.667Z,6.3,1790700680681541,1933470,2026-09-29T16:51:20.575Z,98.5,,,,400,,,1,2026-09-29T16:51:20.668Z,4.5,15.595,0.01,77,29.0,0.0,0,1198627887,2026-09-29T16:51:20.569Z,104.5,5.243,0.012,1,2026-09-29T16:51:20.574Z,99.2,,,,,,,,,,,,,,,,,,,228,2167.35,2026-09-29T16:51:20.667Z,5.9,0,0,0,0,2026-09-29T16:51:20.668Z,5.4,1508,1514,1529,1493,255,2026-09-29T16:51:20.569Z,103.8,0.03,0.06,0.0,0.0,0.03,2026-09-29T16:51:20.569Z,104.2,2026-09-29T16:51:20.574Z,98.8,2026-09-29T16:51:20.673Z,0.2,2026-09-29T16:51:20.672Z,0.6,2026-09-29T16:51:20.672Z,0.9,2026-09-29T16:51:20.575Z,98.2
2026-09-29T16:51:20.720Z,2026-09-29T16:51:20.823Z,2026-09-29T10:51:20.823-06:00,1.0,20,False,AUTO,0,0,-0.551185,0.425135,-131.800346,-0.021772,-0.033232,0.00573,39.0187759,-104.8936044,2167.35,1.979,0.0,0.0,0.0,228.21,0.0,0.0,39.0187759,-104.8936044,2165.91,0.0,139.39,32,6,0.7,1.25,0.004,0.005,-0.003,0,-0.05884,0.0,-9.80665,0.002,0.0,0.0,49,-196,141,15.595,0.01,748,77,,1000,1000,1000,1000,0.027,0.031,0.034,0,0,0,831,0.0093,0.003,0.0137,0.0253,784.819,46.09,-180.0,0.0,0.0,2026-09-29T16:51:20.716Z,0.002,4.97,0,960.5,0,0,0,0,2026-09-29T16:51:20.573Z,146.3,2026-09-29T16:51:20.717Z,2.6,2026-09-29T16:51:20.718Z,1.9,-10,0,-1001,0,0,0,2026-09-29T16:51:20.668Z,51.8,2026-09-29T16:51:20.570Z,150.3,2026-09-29T16:51:20.667Z,53.1,1790700680681541,1933470,2026-09-29T16:51:20.575Z,145.3,,,,400,,,1,2026-09-29T16:51:20.668Z,51.3,15.595,0.01,77,29.0,0.0,0,1198627887,2026-09-29T16:51:20.569Z,151.3,5.243,0.012,1,2026-09-29T16:51:20.574Z,146.0,,,,,,,,,,,,,,,,,,,228,2167.35,2026-09-29T16:51:20.667Z,52.7,0,0,0,0,2026-09-29T16:51:20.668Z,52.2,1508,1514,1529,1493,255,2026-09-29T16:51:20.569Z,150.6,0.03,0.06,0.0,0.0,0.03,2026-09-29T16:51:20.569Z,151.0,2026-09-29T16:51:20.574Z,145.6,2026-09-29T16:51:20.673Z,47.1,2026-09-29T16:51:20.672Z,47.4,2026-09-29T16:51:20.672Z,47.7,2026-09-29T16:51:20.575Z,145.0
2026-09-29T16:51:20.776Z,2026-09-29T16:51:20.879Z,2026-09-29T10:51:20.879-06:00,1.05,21,False,AUTO,0,0,-0.550612,0.424562,-131.802065,0.008021,0.018908,0.00974,39.0187759,-104.8936044,2167.36,1.98,0.0,0.0,0.0,228.2,0.0,0.0,39.018776,-104.8936044,2165.9,0.01,239.03,32,6,0.7,1.25,0.004,0.004,-0.003,0,-0.078453,0.0,-9.80665,0.002,0.001,0.0,49,-196,141,15.585,0.01,748,77,,1000,1000,1000,1000,0.027,0.031,0.034,0,0,0,831,0.0093,0.003,0.0137,0.0253,784.819,46.09,-180.0,0.0,0.0,2026-09-29T16:51:20.766Z,0.003,11.873,0,-10.5,0,0,0,0,2026-09-29T16:51:20.573Z,203.1,2026-09-29T16:51:20.772Z,4.4,2026-09-29T16:51:20.773Z,3.6,-10,0,-1001,0,0,0,2026-09-29T16:51:20.768Z,8.2,2026-09-29T16:51:20.771Z,5.6,2026-09-29T16:51:20.767Z,9.8,1790700680681541,1933470,2026-09-29T16:51:20.575Z,202.1,,,,400,,,1,2026-09-29T16:51:20.769Z,7.6,15.592,0.01,77,28.1,0.0,0,1198627887,2026-09-29T16:51:20.770Z,7.1,5.243,0.012,1,2026-09-29T16:51:20.574Z,202.8,,,,,,,,,,,,,,,,,,,228,2167.36,2026-09-29T16:51:20.767Z,9.4,0,0,0,0,2026-09-29T16:51:20.768Z,8.7,1508,1514,1529,1493,255,2026-09-29T16:51:20.771Z,6.1,0.03,0.06,0.0,0.0,0.03,2026-09-29T16:51:20.770Z,6.6,2026-09-29T16:51:20.574Z,202.4,2026-09-29T16:51:20.673Z,103.9,2026-09-29T16:51:20.672Z,104.2,2026-09-29T16:51:20.672Z,104.5,2026-09-29T16:51:20.575Z,201.8
2026-09-29T16:51:20.820Z,2026-09-29T16:51:20.923Z,2026-09-29T10:51:20.923-06:00,1.1,22,False,AUTO,0,0,-0.549467,0.424562,-131.803784,0.012032,0.013178,0.072193,39.0187759,-104.8936044,2167.36,1.98,0.0,0.0,0.0,228.2,0.0,0.0,39.018776,-104.8936044,2165.9,0.01,239.03,32,6,0.7,1.25,0.004,0.004,-0.003,0,-0.068647,0.0,-9.80665,0.002,0.001,0.0,49,-196,141,15.585,0.01,748,77,,1000,1000,1000,1000,0.027,0.031,0.034,0,0,0,831,0.0093,0.003,0.0137,0.0253,784.819,46.09,-180.0,0.0,0.0,2026-09-29T16:51:20.816Z,0.003,5.038,0,39.5,0,0,0,0,2026-09-29T16:51:20.573Z,246.4,2026-09-29T16:51:20.817Z,2.6,2026-09-29T16:51:20.818Z,2.0,-10,0,-1001,0,0,0,2026-09-29T16:51:20.768Z,51.5,2026-09-29T16:51:20.771Z,48.9,2026-09-29T16:51:20.767Z,53.1,1790700680681541,1933470,2026-09-29T16:51:20.575Z,245.4,,,,400,,,1,2026-09-29T16:51:20.769Z,50.8,15.592,0.01,77,28.1,0.0,0,1198627887,2026-09-29T16:51:20.770Z,50.4,5.243,0.012,1,2026-09-29T16:51:20.574Z,246.1,,,,,,,,,,,,,,,,,,,228,2167.36,2026-09-29T16:51:20.767Z,52.7,0,0,0,0,2026-09-29T16:51:20.768Z,52.0,1508,1514,1529,1493,255,2026-09-29T16:51:20.771Z,49.4,0.03,0.06,0.0,0.0,0.03,2026-09-29T16:51:20.770Z,49.8,2026-09-29T16:51:20.574Z,245.7,2026-09-29T16:51:20.673Z,147.1,2026-09-29T16:51:20.672Z,147.5,2026-09-29T16:51:20.672Z,147.8,2026-09-29T16:51:20.575Z,245.1
2026-09-29T16:51:20.874Z,2026-09-29T16:51:20.977Z,2026-09-29T10:51:20.977-06:00,1.15,23,False,AUTO,0,0,-0.549467,0.424562,-131.806076,-0.008594,0.012605,0.079641,39.0187759,-104.8936044,2167.36,1.981,0.0,0.0,0.0,228.2,0.0,0.0,39.018776,-104.8936044,2165.9,0.01,239.03,32,6,0.7,1.25,0.003,0.004,-0.003,0,-0.078453,0.009807,-9.816457,0.002,0.001,0.0,50,-196,141,15.592,0.01,748,77,,1000,1000,1000,1000,0.027,0.031,0.034,0,0,0,831,0.0093,0.003,0.0137,0.0253,784.819,46.09,-180.0,0.0,0.0,2026-09-29T16:51:20.866Z,0.022,9.705,0,89.5,0,0,0,0,2026-09-29T16:51:20.573Z,301.1,2026-09-29T16:51:20.871Z,3.4,2026-09-29T16:51:20.872Z,2.7,-10,-1,-1001,0,0,-1,2026-09-29T16:51:20.869Z,5.7,2026-09-29T16:51:20.771Z,103.5,2026-09-29T16:51:20.867Z,7.8,1790700680681541,1933470,2026-09-29T16:51:20.575Z,300.1,,,,400,,,1,2026-09-29T16:51:20.870Z,4.9,15.592,0.01,77,28.1,0.0,0,1198627887,2026-09-29T16:51:20.770Z,105.0,5.243,0.012,1,2026-09-29T16:51:20.574Z,300.8,,,,,,,,,,,,,,,,,,,228,2167.36,2026-09-29T16:51:20.867Z,7.3,0,0,0,0,2026-09-29T16:51:20.868Z,6.6,1508,1514,1529,1493,255,2026-09-29T16:51:20.771Z,104.0,0.03,0.06,0.0,0.0,0.03,2026-09-29T16:51:20.770Z,104.5,2026-09-29T16:51:20.574Z,300.4,2026-09-29T16:51:20.673Z,201.8,2026-09-29T16:51:20.672Z,202.1,2026-09-29T16:51:20.672Z,202.5,2026-09-29T16:51:20.575Z,299.8
2026-09-29T16:51:20.920Z,2026-09-29T16:51:21.023Z,2026-09-29T10:51:21.023-06:00,1.2,24,False,AUTO,0,0,-0.548321,0.424562,-131.808941,0.036669,-0.012605,0.040107,39.0187759,-104.8936044,2167.36,1.981,0.0,0.0,0.0,228.2,0.0,0.0,39.018776,-104.8936044,2165.9,0.01,239.03,32,6,0.7,1.25,0.003,0.004,-0.003,0,-0.078453,0.0,-9.816457,0.001,0.001,0.0,50,-196,141,15.592,0.01,748,77,,1000,1000,1000,1000,0.027,0.031,0.034,0,0,0,831,0.0093,0.003,0.0137,0.0253,784.819,46.09,-180.0,0.0,0.0,2026-09-29T16:51:20.916Z,0.003,5.035,0,139.5,0,0,0,0,2026-09-29T16:51:20.573Z,346.4,2026-09-29T16:51:20.917Z,2.6,2026-09-29T16:51:20.918Z,2.0,-10,-1,-1001,0,0,-1,2026-09-29T16:51:20.869Z,51.0,2026-09-29T16:51:20.771Z,148.9,2026-09-29T16:51:20.867Z,53.1,1790700680681541,1933470,2026-09-29T16:51:20.575Z,345.4,,,,400,,,1,2026-09-29T16:51:20.870Z,50.2,15.592,0.01,77,28.1,0.0,0,1198627887,2026-09-29T16:51:20.770Z,150.4,5.243,0.012,1,2026-09-29T16:51:20.574Z,346.1,,,,,,,,,,,,,,,,,,,228,2167.36,2026-09-29T16:51:20.867Z,52.6,0,0,0,0,2026-09-29T16:51:20.868Z,51.9,1508,1514,1529,1493,255,2026-09-29T16:51:20.771Z,149.3,0.03,0.06,0.0,0.0,0.03,2026-09-29T16:51:20.770Z,149.8,2026-09-29T16:51:20.574Z,345.7,2026-09-29T16:51:20.673Z,247.1,2026-09-29T16:51:20.672Z,247.5,2026-09-29T16:51:20.672Z,247.8,2026-09-29T16:51:20.575Z,345.1
2026-09-29T16:51:20.973Z,2026-09-29T16:51:21.076Z,2026-09-29T10:51:21.076-06:00,1.25,25,False,AUTO,0,0,-0.547748,0.424562,-131.811806,-0.002865,-0.010886,0.012032,39.0187759,-104.8936044,2167.36,1.98,0.0,0.0,0.0,228.19,0.0,0.0,39.018776,-104.8936044,2165.9,0.01,20.55,32,6,0.7,1.25,0.004,0.005,-0.003,0,-0.078453,0.009807,-9.80665,0.001,0.0,0.0,49,-197,141,15.595,0.01,748,77,,1000,1000,1000,1000,0.027,0.031,0.034,0,0,0,831,0.0093,0.003,0.0137,0.0253,784.819,46.09,-180.0,0.0,0.0,2026-09-29T16:51:20.966Z,0.003,8.493,0,189.5,0,0,0,0,2026-09-29T16:51:20.573Z,399.8,2026-09-29T16:51:20.971Z,2.6,2026-09-29T16:51:20.971Z,1.9,-10,-1,-1002,0,0,0,2026-09-29T16:51:20.968Z,5.4,2026-09-29T16:51:20.970Z,3.6,2026-09-29T16:51:20.967Z,6.7,1790700680681541,1933470,2026-09-29T16:51:20.575Z,398.8,,,,400,,,1,2026-09-29T16:51:20.968Z,4.9,15.605,0.02,77,28.0,0.0,0,1198627887,2026-09-29T16:51:20.969Z,4.6,5.243,0.012,1,2026-09-29T16:51:20.574Z,399.5,,,,,,,,,,,,,,,,,,,228,2167.36,2026-09-29T16:51:20.967Z,6.3,0,0,0,0,2026-09-29T16:51:20.967Z,5.8,1508,1514,1529,1493,255,2026-09-29T16:51:20.969Z,3.9,0.03,0.06,0.0,0.0,0.03,2026-09-29T16:51:20.969Z,4.3,2026-09-29T16:51:20.574Z,399.1,2026-09-29T16:51:20.673Z,300.5,2026-09-29T16:51:20.672Z,300.8,2026-09-29T16:51:20.672Z,301.2,2026-09-29T16:51:20.575Z,398.5
2026-09-29T16:51:21.020Z,2026-09-29T16:51:21.123Z,2026-09-29T10:51:21.123-06:00,1.3,26,False,AUTO,0,0,-0.548321,0.423989,-131.815243,-0.04068,-0.00974,-0.052712,39.0187759,-104.8936044,2167.36,1.98,0.0,0.0,0.0,228.19,0.0,0.0,39.018776,-104.8936044,2165.9,0.01,20.55,32,6,0.7,1.25,0.004,0.005,-0.003,0,-0.068647,0.0,-9.816457,0.002,0.001,0.0,49,-197,141,15.595,0.01,748,77,,1000,1000,1000,1000,0.027,0.031,0.034,0,0,0,831,0.0093,0.003,0.0137,0.0253,784.819,46.09,-180.0,0.0,0.0,2026-09-29T16:51:21.016Z,0.002,4.898,0,239.5,0,0,0,0,2026-09-29T16:51:20.573Z,446.3,2026-09-29T16:51:21.017Z,2.6,2026-09-29T16:51:21.018Z,2.0,-10,-1,-1002,0,0,0,2026-09-29T16:51:20.968Z,51.9,2026-09-29T16:51:20.970Z,50.1,2026-09-29T16:51:20.967Z,53.2,1790700680681541,1933470,2026-09-29T16:51:20.575Z,445.2,,,,400,,,1,2026-09-29T16:51:20.968Z,51.4,15.605,0.02,77,28.0,0.0,0,1198627887,2026-09-29T16:51:20.969Z,51.1,5.243,0.012,1,2026-09-29T16:51:20.574Z,445.9,,,,,,,,,,,,,,,,,,,228,2167.36,2026-09-29T16:51:20.967Z,52.8,0,0,0,0,2026-09-29T16:51:20.967Z,52.3,1508,1514,1529,1493,255,2026-09-29T16:51:20.969Z,50.4,0.03,0.06,0.0,0.0,0.03,2026-09-29T16:51:20.969Z,50.8,2026-09-29T16:51:20.574Z,445.6,2026-09-29T16:51:20.673Z,347.0,2026-09-29T16:51:20.672Z,347.3,2026-09-29T16:51:20.672Z,347.6,2026-09-29T16:51:20.575Z,444.9
2026-09-29T16:51:21.072Z,2026-09-29T16:51:21.175Z,2026-09-29T10:51:21.175-06:00,1.35,27,False,AUTO,0,0,-0.547748,0.424562,-131.817535,-0.004011,-0.000573,-0.00573,39.0187759,-104.8936044,2167.35,1.978,0.0,0.0,0.0,228.19,0.0,0.0,39.018776,-104.8936044,2165.9,0.01,20.55,32,6,0.7,1.25,0.003,0.005,-0.003,0,-0.078453,0.0,-9.816457,0.002,0.001,0.0,49,-196,141,15.605,0.02,748,77,,1000,1000,1000,1000,0.027,0.031,0.034,0,0,0,831,0.0093,0.003,0.0137,0.0253,784.819,46.09,-180.0,0.0,0.0,2026-09-29T16:51:21.066Z,0.002,7.285,0,289.5,0,0,0,0,2026-09-29T16:51:20.573Z,498.6,2026-09-29T16:51:21.070Z,2.6,2026-09-29T16:51:21.070Z,1.9,-10,0,-1002,0,0,0,2026-09-29T16:51:21.068Z,4.4,2026-09-29T16:51:20.970Z,102.4,2026-09-29T16:51:21.066Z,5.7,1790700680681541,1933470,2026-09-29T16:51:20.575Z,497.6,,,,400,,,1,2026-09-29T16:51:21.068Z,3.9,15.605,0.02,77,28.0,0.0,0,1198627887,2026-09-29T16:51:20.969Z,103.5,5.243,0.012,1,2026-09-29T16:51:20.574Z,498.3,,,,,,,,,,,,,,,,,,,228,2167.35,2026-09-29T16:51:21.067Z,5.3,0,0,0,0,2026-09-29T16:51:21.067Z,4.8,1508,1514,1529,1493,255,2026-09-29T16:51:20.969Z,102.8,0.03,0.06,0.0,0.0,0.03,2026-09-29T16:51:20.969Z,103.1,2026-09-29T16:51:20.574Z,497.9,2026-09-29T16:51:20.673Z,399.4,2026-09-29T16:51:20.672Z,399.7,2026-09-29T16:51:20.672Z,400.0,2026-09-29T16:51:20.575Z,497.3
2026-09-29T16:51:21.120Z,2026-09-29T16:51:21.223Z,2026-09-29T10:51:21.223-06:00,1.4,28,False,AUTO,0,0,-0.547748,0.424562,-131.819254,-0.026356,-0.010313,0.024637,39.0187759,-104.8936044,2167.35,1.978,0.0,0.0,0.0,228.19,0.0,0.0,39.018776,-104.8936044,2165.9,0.01,20.55,32,6,0.7,1.25,0.003,0.005,-0.003,0,-0.078453,0.009807,-9.80665,0.002,0.001,0.0,49,-196,141,15.605,0.02,748,77,,1000,1000,1000,1000,0.027,0.031,0.034,0,0,0,831,0.0093,0.003,0.0137,0.0253,784.819,46.09,-180.0,0.0,0.0,2026-09-29T16:51:21.116Z,0.001,5.586,0,339.5,0,0,0,0,2026-09-29T16:51:20.573Z,547.0,2026-09-29T16:51:21.118Z,2.6,2026-09-29T16:51:21.119Z,1.9,-10,0,-1002,0,0,0,2026-09-29T16:51:21.068Z,52.7,2026-09-29T16:51:20.970Z,150.7,2026-09-29T16:51:21.066Z,54.0,1790700680681541,1933470,2026-09-29T16:51:20.575Z,545.9,,,,400,,,1,2026-09-29T16:51:21.068Z,52.2,15.605,0.02,77,28.0,0.0,0,1198627887,2026-09-29T16:51:20.969Z,151.8,5.243,0.012,1,2026-09-29T16:51:20.574Z,546.6,,,,,,,,,,,,,,,,,,,228,2167.35,2026-09-29T16:51:21.067Z,53.6,0,0,0,0,2026-09-29T16:51:21.067Z,53.1,1508,1514,1529,1493,255,2026-09-29T16:51:20.969Z,151.1,0.03,0.06,0.0,0.0,0.03,2026-09-29T16:51:20.969Z,151.5,2026-09-29T16:51:20.574Z,546.3,2026-09-29T16:51:20.673Z,447.7,2026-09-29T16:51:20.672Z,448.0,2026-09-29T16:51:20.672Z,448.3,2026-09-29T16:51:20.575Z,545.6
2026-09-29T16:51:21.174Z,2026-09-29T16:51:21.277Z,2026-09-29T10:51:21.277-06:00,1.45,29,False,AUTO,0,0,-0.546602,0.423989,-131.820973,0.022918,0.004011,0.098549,39.0187759,-104.8936044,2167.35,1.976,0.0,0.0,0.0,228.18,0.0,0.0,39.0187759,-104.8936044,2165.91,0.01,270.0,32,6,0.7,1.25,0.003,0.005,-0.004,0,-0.05884,0.0,-9.80665,0.002,0.0,0.0,49,-196,141,15.595,0.01,748,77,,1000,1000,1000,1000,0.022,0.022,0.022,0,0,0,831,0.01,0.002,0.0096,0.0211,784.799,46.09,-180.0,0.0,0.0,2026-09-29T16:51:21.166Z,0.002,9.707,0,389.5,0,0,0,0,2026-09-29T16:51:20.573Z,601.1,2026-09-29T16:51:21.171Z,3.6,2026-09-29T16:51:21.172Z,2.9,-10,0,-1000,0,-1,0,2026-09-29T16:51:21.168Z,6.4,2026-09-29T16:51:21.170Z,4.5,2026-09-29T16:51:21.167Z,7.7,1790700680681541,1933470,2026-09-29T16:51:20.575Z,600.0,,,,400,,,1,2026-09-29T16:51:21.169Z,5.9,15.596,0.01,77,28.5,0.0,0,1198627887,2026-09-29T16:51:21.169Z,5.6,5.243,0.012,1,2026-09-29T16:51:20.574Z,600.7,,,,,,,,,,,,,,,,,,,228,2167.35,2026-09-29T16:51:21.167Z,7.3,0,0,0,0,2026-09-29T16:51:21.168Z,6.8,1508,1514,1529,1493,255,2026-09-29T16:51:21.170Z,4.9,0.03,0.06,0.0,0.0,0.03,2026-09-29T16:51:21.169Z,5.3,2026-09-29T16:51:20.574Z,600.4,2026-09-29T16:51:21.174Z,0.2,2026-09-29T16:51:21.174Z,0.6,2026-09-29T16:51:21.174Z,0.9,2026-09-29T16:51:20.575Z,599.7
2026-09-29T16:51:21.220Z,2026-09-29T16:51:21.323Z,2026-09-29T10:51:21.323-06:00,1.5,30,False,AUTO,0,0,-0.545456,0.423989,-131.822692,-0.004011,0.005157,0.102559,39.0187759,-104.8936044,2167.35,1.976,0.0,0.0,0.0,228.18,0.0,0.0,39.0187759,-104.8936044,2165.91,0.01,270.0,32,6,0.7,1.25,0.003,0.005,-0.004,0,-0.078453,0.0,-9.816457,0.002,0.001,0.0,49,-196,141,15.595,0.01,748,77,,1000,1000,1000,1000,0.022,0.022,0.022,0,0,0,831,0.01,0.002,0.0096,0.0211,784.799,46.09,-180.0,0.0,0.0,2026-09-29T16:51:21.216Z,0.002,4.912,0,439.5,0,0,0,0,2026-09-29T16:51:20.573Z,646.3,2026-09-29T16:51:21.217Z,2.6,2026-09-29T16:51:21.218Z,2.0,-10,0,-1000,0,-1,0,2026-09-29T16:51:21.168Z,51.6,2026-09-29T16:51:21.170Z,49.7,2026-09-29T16:51:21.167Z,52.9,1790700680681541,1933470,2026-09-29T16:51:20.575Z,645.2,,,,400,,,1,2026-09-29T16:51:21.169Z,51.2,15.596,0.01,77,28.5,0.0,0,1198627887,2026-09-29T16:51:21.169Z,50.8,5.243,0.012,1,2026-09-29T16:51:20.574Z,645.9,,,,,,,,,,,,,,,,,,,228,2167.35,2026-09-29T16:51:21.167Z,52.5,0,0,0,0,2026-09-29T16:51:21.168Z,52.1,1508,1514,1529,1493,255,2026-09-29T16:51:21.170Z,50.2,0.03,0.06,0.0,0.0,0.03,2026-09-29T16:51:21.169Z,50.5,2026-09-29T16:51:20.574Z,645.6,2026-09-29T16:51:21.174Z,45.5,2026-09-29T16:51:21.174Z,45.8,2026-09-29T16:51:21.174Z,46.1,2026-09-29T16:51:20.575Z,644.9
2026-09-29T16:51:21.272Z,2026-09-29T16:51:21.375Z,2026-09-29T10:51:21.375-06:00,1.55,31,False,AUTO,0,0,-0.545456,0.424562,-131.824411,0.001146,-0.005157,0.077349,39.0187759,-104.8936044,2167.35,1.975,0.0,0.0,0.0,228.18,0.0,0.0,39.0187759,-104.8936044,2165.91,0.01,270.0,32,6,0.7,1.25,0.003,0.005,-0.004,0,-0.068647,0.0,-9.816457,0.002,0.001,0.0,49,-196,141,15.596,0.01,748,77,,1000,1000,1000,1000,0.022,0.022,0.022,0,0,0,831,0.01,0.002,0.0096,0.0211,784.799,46.09,-180.0,0.0,0.0,2026-09-29T16:51:21.266Z,0.002,6.873,0,489.5,0,0,0,0,2026-09-29T16:51:20.573Z,698.2,2026-09-29T16:51:21.269Z,2.6,2026-09-29T16:51:21.270Z,2.0,-10,0,-1001,0,0,0,2026-09-29T16:51:21.268Z,4.0,2026-09-29T16:51:21.170Z,101.7,2026-09-29T16:51:21.266Z,5.3,1790700680681541,1933470,2026-09-29T16:51:20.575Z,697.2,,,,400,,,1,2026-09-29T16:51:21.268Z,3.6,15.596,0.01,77,28.5,0.0,0,1198627887,2026-09-29T16:51:21.169Z,102.8,5.243,0.012,1,2026-09-29T16:51:20.574Z,697.9,,,,,,,,,,,,,,,,,,,228,2167.35,2026-09-29T16:51:21.267Z,4.9,0,0,0,0,2026-09-29T16:51:21.267Z,4.5,1508,1514,1529,1493,255,2026-09-29T16:51:21.170Z,102.1,0.03,0.06,0.0,0.0,0.03,2026-09-29T16:51:21.169Z,102.5,2026-09-29T16:51:20.574Z,697.5,2026-09-29T16:51:21.174Z,97.4,2026-09-29T16:51:21.174Z,97.7,2026-09-29T16:51:21.174Z,98.1,2026-09-29T16:51:20.575Z,696.9
2026-09-29T16:51:21.320Z,2026-09-29T16:51:21.423Z,2026-09-29T10:51:21.423-06:00,1.6,32,False,AUTO,0,0,-0.544883,0.423989,-131.827275,0.013178,-0.013751,-0.010313,39.0187759,-104.8936044,2167.35,1.975,0.0,0.0,0.0,228.18,0.0,0.0,39.0187759,-104.8936044,2165.91,0.01,270.0,32,6,0.7,1.25,0.003,0.005,-0.004,0,-0.078453,0.0,-9.816457,0.002,0.0,0.0,49,-196,141,15.596,0.01,748,77,,1000,1000,1000,1000,0.022,0.022,0.022,0,0,0,831,0.01,0.002,0.0096,0.0211,784.799,46.09,-180.0,0.0,0.0,2026-09-29T16:51:21.316Z,0.002,4.875,0,539.5,0,0,0,0,2026-09-29T16:51:20.573Z,746.2,2026-09-29T16:51:21.317Z,2.6,2026-09-29T16:51:21.318Z,2.0,-10,0,-1001,0,0,0,2026-09-29T16:51:21.268Z,52.0,2026-09-29T16:51:21.170Z,149.7,2026-09-29T16:51:21.266Z,53.3,1790700680681541,1933470,2026-09-29T16:51:20.575Z,745.2,,,,400,,,1,2026-09-29T16:51:21.268Z,51.6,15.596,0.01,77,28.5,0.0,0,1198627887,2026-09-29T16:51:21.169Z,150.8,5.243,0.012,1,2026-09-29T16:51:20.574Z,745.9,,,,,,,,,,,,,,,,,,,228,2167.35,2026-09-29T16:51:21.267Z,52.9,0,0,0,0,2026-09-29T16:51:21.267Z,52.5,1508,1514,1529,1493,255,2026-09-29T16:51:21.170Z,150.1,0.03,0.06,0.0,0.0,0.03,2026-09-29T16:51:21.169Z,150.5,2026-09-29T16:51:20.574Z,745.5,2026-09-29T16:51:21.174Z,145.4,2026-09-29T16:51:21.174Z,145.7,2026-09-29T16:51:21.174Z,146.1,2026-09-29T16:51:20.575Z,744.9
2026-09-29T16:51:21.373Z,2026-09-29T16:51:21.476Z,2026-09-29T10:51:21.476-06:00,1.65,33,False,AUTO,0,0,-0.54431,0.422843,-131.829567,0.011459,-0.014897,0.028648,39.0187759,-104.8936044,2167.35,1.975,0.0,0.0,0.0,228.18,0.0,0.0,39.018776,-104.8936044,2165.91,0.02,122.27,32,6,0.7,1.25,0.003,0.005,-0.004,0,-0.068647,0.0,-9.816457,0.002,0.001,0.0,49,-197,141,15.586,0.01,748,77,,1000,1000,1000,1000,0.022,0.022,0.022,0,0,0,831,0.01,0.002,0.0096,0.0211,784.799,46.09,-180.0,0.0,0.0,2026-09-29T16:51:21.366Z,0.002,8.336,0,589.5,0,0,0,0,2026-09-29T16:51:20.573Z,799.6,2026-09-29T16:51:21.371Z,2.5,2026-09-29T16:51:21.371Z,1.9,-10,0,-1001,0,-1,0,2026-09-29T16:51:21.368Z,5.4,2026-09-29T16:51:21.370Z,3.6,2026-09-29T16:51:21.366Z,6.6,1790700680681541,1933470,2026-09-29T16:51:20.575Z,798.6,,,,400,,,1,2026-09-29T16:51:21.368Z,4.9,15.592,0.01,77,27.8,0.0,0,1198627887,2026-09-29T16:51:21.369Z,4.6,5.243,0.012,1,2026-09-29T16:51:20.574Z,799.3,,,,,,,,,,,,,,,,,,,228,2167.35,2026-09-29T16:51:21.367Z,6.3,0,0,0,0,2026-09-29T16:51:21.367Z,5.8,1508,1514,1529,1493,255,2026-09-29T16:51:21.369Z,3.9,0.03,0.06,0.0,0.0,0.03,2026-09-29T16:51:21.369Z,4.3,2026-09-29T16:51:20.574Z,798.9,2026-09-29T16:51:21.174Z,198.8,2026-09-29T16:51:21.174Z,199.1,2026-09-29T16:51:21.174Z,199.5,2026-09-29T16:51:20.575Z,798.3
2026-09-29T16:51:21.420Z,2026-09-29T16:51:21.523Z,2026-09-29T10:51:21.523-06:00,1.7,34,False,AUTO,0,0,-0.545456,0.423416,-131.831286,-0.010886,0.00573,0.029794,39.0187759,-104.8936044,2167.35,1.975,0.0,0.0,0.0,228.18,0.0,0.0,39.018776,-104.8936044,2165.91,0.02,122.27,32,6,0.7,1.25,0.003,0.005,-0.004,0,-0.078453,0.0,-9.80665,0.002,0.0,0.0,49,-197,141,15.586,0.01,748,77,,1000,1000,1000,1000,0.022,0.022,0.022,0,0,0,831,0.01,0.002,0.0096,0.0211,784.799,46.09,-180.0,0.0,0.0,2026-09-29T16:51:21.416Z,0.002,4.968,0,639.5,0,0,0,0,2026-09-29T16:51:20.573Z,846.3,2026-09-29T16:51:21.417Z,2.7,2026-09-29T16:51:21.418Z,2.1,-10,0,-1001,0,-1,0,2026-09-29T16:51:21.368Z,52.1,2026-09-29T16:51:21.370Z,50.3,2026-09-29T16:51:21.366Z,53.3,1790700680681541,1933470,2026-09-29T16:51:20.575Z,845.3,,,,400,,,1,2026-09-29T16:51:21.368Z,51.6,15.592,0.01,77,27.8,0.0,0,1198627887,2026-09-29T16:51:21.369Z,51.3,5.243,0.012,1,2026-09-29T16:51:20.574Z,846.0,,,,,,,,,,,,,,,,,,,228,2167.35,2026-09-29T16:51:21.367Z,53.0,0,0,0,0,2026-09-29T16:51:21.367Z,52.5,1508,1514,1529,1493,255,2026-09-29T16:51:21.369Z,50.6,0.03,0.06,0.0,0.0,0.03,2026-09-29T16:51:21.369Z,51.0,2026-09-29T16:51:20.574Z,845.6,2026-09-29T16:51:21.174Z,245.5,2026-09-29T16:51:21.174Z,245.8,2026-09-29T16:51:21.174Z,246.2,2026-09-29T16:51:20.575Z,845.0
2026-09-29T16:51:21.472Z,2026-09-29T16:51:21.575Z,2026-09-29T10:51:21.575-06:00,1.75,35,False,AUTO,0,0,-0.54431,0.423416,-131.833578,0.020626,0.000573,0.024637,39.0187759,-104.8936044,2167.35,1.975,0.0,0.0,0.0,228.17,0.0,0.0,39.018776,-104.8936044,2165.91,0.02,122.27,32,6,0.7,1.25,0.003,0.005,-0.004,0,-0.068647,0.0,-9.796843,0.002,0.0,0.0,49,-196,141,15.592,0.01,748,77,,1000,1000,1000,1000,0.022,0.022,0.022,0,0,0,831,0.01,0.002,0.0096,0.0211,784.799,46.09,-180.0,0.0,0.0,2026-09-29T16:51:21.466Z,0.002,6.903,0,689.5,0,0,0,0,2026-09-29T16:51:20.573Z,898.3,2026-09-29T16:51:21.469Z,2.6,2026-09-29T16:51:21.470Z,2.0,-10,0,-1001,0,-1,0,2026-09-29T16:51:21.468Z,4.0,2026-09-29T16:51:21.370Z,102.2,2026-09-29T16:51:21.466Z,5.3,1790700680681541,1933470,2026-09-29T16:51:20.575Z,897.2,,,,400,,,1,2026-09-29T16:51:21.468Z,3.6,15.592,0.01,77,27.8,0.0,0,1198627887,2026-09-29T16:51:21.369Z,103.2,5.243,0.012,1,2026-09-29T16:51:20.574Z,897.9,,,,,,,,,,,,,,,,,,,228,2167.35,2026-09-29T16:51:21.467Z,4.9,0,0,0,0,2026-09-29T16:51:21.467Z,4.4,1508,1514,1529,1493,255,2026-09-29T16:51:21.369Z,102.5,0.03,0.06,0.0,0.0,0.03,2026-09-29T16:51:21.369Z,102.9,2026-09-29T16:51:20.574Z,897.6,2026-09-29T16:51:21.174Z,297.4,2026-09-29T16:51:21.174Z,297.8,2026-09-29T16:51:21.174Z,298.1,2026-09-29T16:51:20.575Z,896.9
2026-09-29T16:51:21.520Z,2026-09-29T16:51:21.623Z,2026-09-29T10:51:21.623-06:00,1.8,36,False,AUTO,0,0,-0.543164,0.423989,-131.83587,-0.008021,0.012605,0.04068,39.0187759,-104.8936044,2167.35,1.975,0.0,0.0,0.0,228.17,0.0,0.0,39.018776,-104.8936044,2165.91,0.02,122.27,32,6,0.7,1.25,0.003,0.005,-0.004,0,-0.078453,0.0,-9.80665,0.002,0.0,0.0,49,-196,141,15.592,0.01,748,77,,1000,1000,1000,1000,0.022,0.022,0.022,0,0,0,831,0.01,0.002,0.0096,0.0211,784.799,46.09,-180.0,0.0,0.0,2026-09-29T16:51:21.516Z,0.002,5.53,0,739.5,0,3,81,3,2026-09-29T16:51:21.517Z,3.5,2026-09-29T16:51:21.518Z,2.6,2026-09-29T16:51:21.518Z,1.9,-10,0,-1001,0,-1,0,2026-09-29T16:51:21.468Z,52.7,2026-09-29T16:51:21.370Z,150.8,2026-09-29T16:51:21.466Z,53.9,1790700680681541,1933470,2026-09-29T16:51:20.575Z,945.9,,,,400,,,1,2026-09-29T16:51:21.468Z,52.2,15.592,0.01,77,27.8,0.0,0,1198627887,2026-09-29T16:51:21.369Z,151.9,5.243,0.012,1,2026-09-29T16:51:20.574Z,946.6,,,,,,,,,,,,,,,,,,,228,2167.35,2026-09-29T16:51:21.467Z,53.6,0,0,0,0,2026-09-29T16:51:21.467Z,53.1,1508,1514,1529,1493,255,2026-09-29T16:51:21.369Z,151.2,0.03,0.06,0.0,0.0,0.03,2026-09-29T16:51:21.369Z,151.5,2026-09-29T16:51:20.574Z,946.2,2026-09-29T16:51:21.174Z,346.1,2026-09-29T16:51:21.174Z,346.4,2026-09-29T16:51:21.174Z,346.8,2026-09-29T16:51:20.575Z,945.6
2026-09-29T16:51:21.574Z,2026-09-29T16:51:21.677Z,2026-09-29T10:51:21.677-06:00,1.85,37,False,AUTO,0,0,-0.543164,0.423989,-131.837589,0.004584,0.006303,0.039534,39.0187759,-104.8936044,2167.35,1.975,0.0,0.0,0.0,228.17,0.0,0.0,39.0187759,-104.8936044,2165.91,0.02,347.47,32,6,0.7,1.25,0.003,0.005,-0.004,0,-0.068647,0.009807,-9.80665,0.002,0.0,0.0,50,-196,141,15.598,0.01,748,77,,1000,1000,1000,1000,0.022,0.022,0.022,0,0,0,831,0.01,0.002,0.0096,0.0211,784.799,46.09,-180.0,0.0,0.0,2026-09-29T16:51:21.566Z,0.002,9.675,0,789.5,0,3,81,3,2026-09-29T16:51:21.517Z,57.7,2026-09-29T16:51:21.571Z,3.9,2026-09-29T16:51:21.571Z,3.2,-11,0,-1000,0,-1,0,2026-09-29T16:51:21.568Z,6.7,2026-09-29T16:51:21.570Z,4.9,2026-09-29T16:51:21.566Z,8.0,1790700681681360,1934469,2026-09-29T16:51:21.574Z,0.6,,,,400,,,1,2026-09-29T16:51:21.568Z,6.2,15.597,0.01,77,28.5,0.0,0,1198627887,2026-09-29T16:51:21.569Z,5.9,5.24,0.021,1,2026-09-29T16:51:21.573Z,1.2,,,,,,,,,,,,,,,,,,,228,2167.35,2026-09-29T16:51:21.567Z,7.6,0,0,0,0,2026-09-29T16:51:21.567Z,7.1,1508,1514,1529,1493,255,2026-09-29T16:51:21.569Z,5.2,0.03,0.06,0.0,0.0,0.03,2026-09-29T16:51:21.569Z,5.6,2026-09-29T16:51:21.574Z,0.9,2026-09-29T16:51:21.174Z,400.2,2026-09-29T16:51:21.174Z,400.5,2026-09-29T16:51:21.174Z,400.9,2026-09-29T16:51:21.574Z,0.2
2026-09-29T16:51:21.620Z,2026-09-29T16:51:21.723Z,2026-09-29T10:51:21.723-06:00,1.9,38,False,AUTO,0,0,-0.542018,0.423416,-131.838162,0.012605,-0.010313,0.070474,39.0187759,-104.8936044,2167.35,1.975,0.0,0.0,0.0,228.17,0.0,0.0,39.0187759,-104.8936044,2165.91,0.02,347.47,32,6,0.7,1.25,0.003,0.005,-0.004,0,-0.068647,0.0,-9.80665,0.001,0.0,0.0,50,-196,141,15.598,0.01,748,77,,1000,1000,1000,1000,0.022,0.022,0.022,0,0,0,831,0.01,0.002,0.0096,0.0211,784.799,46.09,-180.0,0.0,0.0,2026-09-29T16:51:21.616Z,0.002,4.838,0,839.5,0,3,81,3,2026-09-29T16:51:21.517Z,102.8,2026-09-29T16:51:21.617Z,2.6,2026-09-29T16:51:21.618Z,2.0,-11,0,-1000,0,-1,0,2026-09-29T16:51:21.568Z,51.9,2026-09-29T16:51:21.570Z,50.0,2026-09-29T16:51:21.566Z,53.1,1790700681681360,1934469,2026-09-29T16:51:21.574Z,45.7,,,,400,,,1,2026-09-29T16:51:21.568Z,51.4,15.597,0.01,77,28.5,0.0,0,1198627887,2026-09-29T16:51:21.569Z,51.1,5.24,0.021,1,2026-09-29T16:51:21.573Z,46.4,,,,,,,,,,,,,,,,,,,228,2167.35,2026-09-29T16:51:21.567Z,52.8,0,0,0,0,2026-09-29T16:51:21.567Z,52.3,1508,1514,1529,1493,255,2026-09-29T16:51:21.569Z,50.4,0.03,0.06,0.0,0.0,0.03,2026-09-29T16:51:21.569Z,50.7,2026-09-29T16:51:21.574Z,46.1,2026-09-29T16:51:21.174Z,445.4,2026-09-29T16:51:21.174Z,445.7,2026-09-29T16:51:21.174Z,446.1,2026-09-29T16:51:21.574Z,45.4
2026-09-29T16:51:21.673Z,2026-09-29T16:51:21.776Z,2026-09-29T10:51:21.776-06:00,1.95,39,False,AUTO,0,0,-0.542018,0.42227,-131.841026,-0.016616,0.00573,0.029221,39.0187759,-104.8936044,2167.35,1.973,0.0,0.0,0.0,228.17,0.0,0.0,39.0187759,-104.8936044,2165.91,0.02,347.47,32,6,0.7,1.25,0.003,0.005,-0.004,0,-0.078453,0.0,-9.80665,0.002,0.0,0.0,49,-196,141,15.597,0.01,748,77,,1000,1000,1000,1000,0.021,0.022,0.022,0,0,0,831,0.0078,0.0021,0.0186,0.0269,784.815,46.09,-180.0,0.0,0.0,2026-09-29T16:51:21.666Z,0.002,8.496,0,889.5,0,0,0,0,2026-09-29T16:51:21.669Z,4.5,2026-09-29T16:51:21.670Z,3.5,2026-09-29T16:51:21.670Z,2.9,-10,0,-1001,0,-1,0,2026-09-29T16:51:21.668Z,5.6,2026-09-29T16:51:21.570Z,103.6,2026-09-29T16:51:21.666Z,6.8,1790700681681360,1934469,2026-09-29T16:51:21.574Z,99.3,,,,400,,,1,2026-09-29T16:51:21.668Z,5.1,15.597,0.01,77,28.5,0.0,0,1198627887,2026-09-29T16:51:21.569Z,104.7,5.24,0.021,1,2026-09-29T16:51:21.573Z,100.0,,,,,,,,,,,,,,,,,,,228,2167.35,2026-09-29T16:51:21.667Z,6.5,0,0,0,0,2026-09-29T16:51:21.667Z,6.0,1508,1514,1529,1493,255,2026-09-29T16:51:21.569Z,104.0,0.03,0.06,0.0,0.0,0.03,2026-09-29T16:51:21.569Z,104.3,2026-09-29T16:51:21.574Z,99.7,2026-09-29T16:51:21.673Z,0.2,2026-09-29T16:51:21.673Z,0.6,2026-09-29T16:51:21.672Z,0.9,2026-09-29T16:51:21.574Z,99.0
2026-09-29T16:51:21.720Z,2026-09-29T16:51:21.823Z,2026-09-29T10:51:21.823-06:00,2.0,40,False,AUTO,0,0,-0.542018,0.421124,-131.841599,-0.002292,-0.001719,0.077922,39.0187759,-104.8936044,2167.35,1.973,0.0,0.0,0.0,228.17,0.0,0.0,39.0187759,-104.8936044,2165.91,0.02,347.47,32,6,0.7,1.25,0.003,0.005,-0.004,0,-0.078453,0.009807,-9.816457,0.002,0.001,0.0,49,-196,141,15.597,0.01,748,77,,1000,1000,1000,1000,0.021,0.022,0.022,0,0,0,831,0.0078,0.0021,0.0186,0.0269,784.815,46.09,-180.0,0.0,0.0,2026-09-29T16:51:21.716Z,0.002,4.886,0,939.5,0,0,0,0,2026-09-29T16:51:21.669Z,50.9,2026-09-29T16:51:21.717Z,2.6,2026-09-29T16:51:21.718Z,2.0,-10,0,-1001,0,-1,0,2026-09-29T16:51:21.668Z,52.0,2026-09-29T16:51:21.570Z,150.1,2026-09-29T16:51:21.666Z,53.3,1790700681681360,1934469,2026-09-29T16:51:21.574Z,145.8,,,,400,,,1,2026-09-29T16:51:21.668Z,51.6,15.597,0.01,77,28.5,0.0,0,1198627887,2026-09-29T16:51:21.569Z,151.1,5.24,0.021,1,2026-09-29T16:51:21.573Z,146.5,,,,,,,,,,,,,,,,,,,228,2167.35,2026-09-29T16:51:21.667Z,52.9,0,0,0,0,2026-09-29T16:51:21.667Z,52.4,1508,1514,1529,1493,255,2026-09-29T16:51:21.569Z,150.4,0.03,0.06,0.0,0.0,0.03,2026-09-29T16:51:21.569Z,150.8,2026-09-29T16:51:21.574Z,146.1,2026-09-29T16:51:21.673Z,46.7,2026-09-29T16:51:21.673Z,47.0,2026-09-29T16:51:21.672Z,47.3,2026-09-29T16:51:21.574Z,145.5
2026-09-29T16:51:21.773Z,2026-09-29T16:51:21.876Z,2026-09-29T10:51:21.876-06:00,2.05,41,False,AUTO,0,0,-0.542018,0.419978,-131.844464,0.01547,-0.010313,0.025783,39.0187759,-104.8936044,2167.35,1.972,0.0,0.0,0.0,228.16,0.0,0.0,39.0187759,-104.8936044,2165.91,0.01,199.98,32,6,0.7,1.25,0.003,0.005,-0.004,0,-0.078453,0.0,-9.80665,0.002,0.001,0.0,50,-196,141,15.595,0.01,748,77,,1000,1000,1000,1000,0.021,0.022,0.022,0,0,0,831,0.0078,0.0021,0.0186,0.0269,784.815,46.09,-180.0,0.0,0.0,2026-09-29T16:51:21.766Z,0.002,8.419,0,989.5,0,0,0,0,2026-09-29T16:51:21.669Z,104.4,2026-09-29T16:51:21.771Z,2.6,2026-09-29T16:51:21.771Z,1.9,-9,0,-1001,0,-1,0,2026-09-29T16:51:21.768Z,5.5,2026-09-29T16:51:21.770Z,3.7,2026-09-29T16:51:21.766Z,6.7,1790700681681360,1934469,2026-09-29T16:51:21.574Z,199.2,,,,400,,,1,2026-09-29T16:51:21.768Z,5.0,15.601,0.01,77,28.1,0.0,0,1198627887,2026-09-29T16:51:21.769Z,4.7,5.24,0.021,1,2026-09-29T16:51:21.573Z,199.9,,,,,,,,,,,,,,,,,,,228,2167.35,2026-09-29T16:51:21.767Z,6.4,0,0,0,0,2026-09-29T16:51:21.767Z,5.9,1508,1514,1529,1493,255,2026-09-29T16:51:21.769Z,4.0,0.03,0.06,0.0,0.0,0.03,2026-09-29T16:51:21.769Z,4.4,2026-09-29T16:51:21.574Z,199.6,2026-09-29T16:51:21.673Z,100.2,2026-09-29T16:51:21.673Z,100.5,2026-09-29T16:51:21.672Z,100.8,2026-09-29T16:51:21.574Z,198.9
2026-09-29T16:51:21.820Z,2026-09-29T16:51:21.923Z,2026-09-29T10:51:21.923-06:00,2.1,42,False,AUTO,0,0,-0.541445,0.419405,-131.846756,0.001146,-0.012032,0.028648,39.0187759,-104.8936044,2167.35,1.972,0.0,0.0,0.0,228.16,0.0,0.0,39.0187759,-104.8936044,2165.91,0.01,199.98,32,6,0.7,1.25,0.003,0.005,-0.004,0,-0.078453,0.0,-9.80665,0.002,0.001,0.0,50,-196,141,15.595,0.01,748,77,,1000,1000,1000,1000,0.021,0.022,0.022,0,0,0,831,0.0078,0.0021,0.0186,0.0269,784.815,46.09,-180.0,0.0,0.0,2026-09-29T16:51:21.816Z,0.002,5.556,0,-4.3,0,0,0,0,2026-09-29T16:51:21.669Z,151.6,2026-09-29T16:51:21.817Z,3.3,2026-09-29T16:51:21.818Z,2.7,-9,0,-1001,0,-1,0,2026-09-29T16:51:21.768Z,52.7,2026-09-29T16:51:21.770Z,50.8,2026-09-29T16:51:21.766Z,53.9,1790700681681360,1934469,2026-09-29T16:51:21.574Z,246.4,,,,400,,,1,2026-09-29T16:51:21.768Z,52.2,15.601,0.01,77,28.1,0.0,0,1198627887,2026-09-29T16:51:21.769Z,51.9,5.24,0.021,1,2026-09-29T16:51:21.573Z,247.1,,,,,,,,,,,,,,,,,,,228,2167.35,2026-09-29T16:51:21.767Z,53.6,0,0,0,0,2026-09-29T16:51:21.767Z,53.1,1508,1514,1529,1493,255,2026-09-29T16:51:21.769Z,51.2,0.03,0.06,0.0,0.0,0.03,2026-09-29T16:51:21.769Z,51.5,2026-09-29T16:51:21.574Z,246.8,2026-09-29T16:51:21.673Z,147.3,2026-09-29T16:51:21.673Z,147.7,2026-09-29T16:51:21.672Z,148.0,2026-09-29T16:51:21.574Z,246.1
2026-09-29T16:51:21.872Z,2026-09-29T16:51:21.975Z,2026-09-29T10:51:21.975-06:00,2.15,43,False,AUTO,0,0,-0.542018,0.418832,-131.850194,-0.016616,-0.005157,0.009167,39.0187759,-104.8936044,2167.35,1.972,0.0,0.0,0.0,228.16,0.0,0.0,39.0187759,-104.8936044,2165.91,0.01,199.98,32,6,0.7,1.25,0.002,0.005,-0.005,0,-0.078453,0.009807,-9.816457,0.002,0.001,0.0,50,-196,141,15.601,0.01,748,77,,1000,1000,1000,1000,0.021,0.022,0.022,0,0,0,831,0.0078,0.0021,0.0186,0.0269,784.815,46.09,-180.0,0.0,0.0,2026-09-29T16:51:21.866Z,0.002,6.929,0,45.7,0,0,0,0,2026-09-29T16:51:21.669Z,203.0,2026-09-29T16:51:21.869Z,2.6,2026-09-29T16:51:21.870Z,2.0,-10,0,-1001,0,-1,0,2026-09-29T16:51:21.868Z,4.0,2026-09-29T16:51:21.770Z,102.2,2026-09-29T16:51:21.866Z,5.3,1790700681681360,1934469,2026-09-29T16:51:21.574Z,297.8,,,,400,,,1,2026-09-29T16:51:21.868Z,3.5,15.601,0.01,77,28.1,0.0,0,1198627887,2026-09-29T16:51:21.769Z,103.3,5.24,0.021,1,2026-09-29T16:51:21.573Z,298.5,,,,,,,,,,,,,,,,,,,228,2167.35,2026-09-29T16:51:21.867Z,4.9,0,0,0,0,2026-09-29T16:51:21.867Z,4.4,1508,1514,1529,1493,255,2026-09-29T16:51:21.769Z,102.6,0.03,0.06,0.0,0.0,0.03,2026-09-29T16:51:21.769Z,102.9,2026-09-29T16:51:21.574Z,298.2,2026-09-29T16:51:21.673Z,198.7,2026-09-29T16:51:21.673Z,199.0,2026-09-29T16:51:21.672Z,199.4,2026-09-29T16:51:21.574Z,297.5
2026-09-29T16:51:21.920Z,2026-09-29T16:51:22.023Z,2026-09-29T10:51:22.023-06:00,2.2,44,False,AUTO,0,0,-0.542591,0.418259,-131.853059,-0.022345,0.013178,0.019481,39.0187759,-104.8936044,2167.35,1.972,0.0,0.0,0.0,228.16,0.0,0.0,39.0187759,-104.8936044,2165.91,0.01,199.98,32,6,0.7,1.25,0.002,0.005,-0.005,0,-0.068647,0.0,-9.816457,0.002,0.001,0.0,50,-196,141,15.601,0.01,748,77,,1000,1000,1000,1000,0.021,0.022,0.022,0,0,0,831,0.0078,0.0021,0.0186,0.0269,784.815,46.09,-180.0,0.0,0.0,2026-09-29T16:51:21.916Z,0.002,4.912,0,95.7,0,0,0,0,2026-09-29T16:51:21.669Z,251.0,2026-09-29T16:51:21.917Z,2.6,2026-09-29T16:51:21.918Z,2.0,-10,0,-1001,0,-1,0,2026-09-29T16:51:21.868Z,52.0,2026-09-29T16:51:21.770Z,150.2,2026-09-29T16:51:21.866Z,53.3,1790700681681360,1934469,2026-09-29T16:51:21.574Z,345.8,,,,400,,,1,2026-09-29T16:51:21.868Z,51.5,15.601,0.01,77,28.1,0.0,0,1198627887,2026-09-29T16:51:21.769Z,151.2,5.24,0.021,1,2026-09-29T16:51:21.573Z,346.5,,,,,,,,,,,,,,,,,,,228,2167.35,2026-09-29T16:51:21.867Z,52.9,0,0,0,0,2026-09-29T16:51:21.867Z,52.4,1508,1514,1529,1493,255,2026-09-29T16:51:21.769Z,150.6,0.03,0.06,0.0,0.0,0.03,2026-09-29T16:51:21.769Z,150.9,2026-09-29T16:51:21.574Z,346.2,2026-09-29T16:51:21.673Z,246.7,2026-09-29T16:51:21.673Z,247.0,2026-09-29T16:51:21.672Z,247.3,2026-09-29T16:51:21.574Z,345.5
2026-09-29T16:51:21.973Z,2026-09-29T16:51:22.076Z,2026-09-29T10:51:22.076-06:00,2.25,45,False,AUTO,0,0,-0.543737,0.417686,-131.85535,-0.023491,0.010313,0.032086,39.0187759,-104.8936044,2167.34,1.969,0.0,0.0,0.0,228.15,0.0,0.0,39.0187759,-104.8936044,2165.9,0.01,132.7,32,6,0.7,1.25,0.002,0.006,-0.005,0,-0.068647,0.0,-9.80665,0.002,0.0,0.0,49,-196,141,15.594,0.01,748,77,,1000,1000,1000,1000,0.021,0.022,0.022,0,0,0,831,0.0078,0.0021,0.0186,0.0269,784.815,46.09,-180.0,0.0,0.0,2026-09-29T16:51:21.966Z,0.002,8.309,0,145.7,0,0,0,0,2026-09-29T16:51:21.669Z,304.3,2026-09-29T16:51:21.971Z,2.5,2026-09-29T16:51:21.971Z,1.9,-9,0,-1001,0,-1,0,2026-09-29T16:51:21.968Z,5.4,2026-09-29T16:51:21.970Z,3.5,2026-09-29T16:51:21.966Z,6.6,1790700681681360,1934469,2026-09-29T16:51:21.574Z,399.1,,,,400,,,1,2026-09-29T16:51:21.968Z,4.9,15.608,0.01,77,27.7,0.0,0,1198627887,2026-09-29T16:51:21.969Z,4.6,5.24,0.021,1,2026-09-29T16:51:21.573Z,399.8,,,,,,,,,,,,,,,,,,,228,2167.34,2026-09-29T16:51:21.967Z,6.3,0,0,0,0,2026-09-29T16:51:21.967Z,5.8,1508,1514,1529,1493,255,2026-09-29T16:51:21.969Z,3.9,0.03,0.06,0.0,0.0,0.03,2026-09-29T16:51:21.969Z,4.3,2026-09-29T16:51:21.574Z,399.5,2026-09-29T16:51:21.673Z,300.0,2026-09-29T16:51:21.673Z,300.4,2026-09-29T16:51:21.672Z,300.7,2026-09-29T16:51:21.574Z,398.8
2026-09-29T16:51:22.020Z,2026-09-29T16:51:22.123Z,2026-09-29T10:51:22.123-06:00,2.3,46,False,AUTO,0,0,-0.543737,0.417686,-131.857069,-0.006303,-0.004584,0.063025,39.0187759,-104.8936044,2167.34,1.969,0.0,0.0,0.0,228.15,0.0,0.0,39.0187759,-104.8936044,2165.9,0.01,132.7,32,6,0.7,1.25,0.002,0.006,-0.005,0,-0.068647,0.009807,-9.80665,0.002,0.0,0.0,49,-196,141,15.594,0.01,748,77,,1000,1000,1000,1000,0.021,0.022,0.022,0,0,0,831,0.0078,0.0021,0.0186,0.0269,784.815,46.09,-180.0,0.0,0.0,2026-09-29T16:51:22.016Z,0.002,4.849,0,195.7,0,0,0,0,2026-09-29T16:51:21.669Z,350.9,2026-09-29T16:51:22.017Z,2.6,2026-09-29T16:51:22.018Z,2.0,-9,0,-1001,0,-1,0,2026-09-29T16:51:21.968Z,52.0,2026-09-29T16:51:21.970Z,50.2,2026-09-29T16:51:21.966Z,53.2,1790700681681360,1934469,2026-09-29T16:51:21.574Z,445.7,,,,400,,,1,2026-09-29T16:51:21.968Z,51.5,15.608,0.01,77,27.7,0.0,0,1198627887,2026-09-29T16:51:21.969Z,51.2,5.24,0.021,1,2026-09-29T16:51:21.573Z,446.4,,,,,,,,,,,,,,,,,,,228,2167.34,2026-09-29T16:51:21.967Z,52.9,0,0,0,0,2026-09-29T16:51:21.967Z,52.4,1508,1514,1529,1493,255,2026-09-29T16:51:21.969Z,50.5,0.03,0.06,0.0,0.0,0.03,2026-09-29T16:51:21.969Z,50.9,2026-09-29T16:51:21.574Z,446.1,2026-09-29T16:51:21.673Z,346.7,2026-09-29T16:51:21.673Z,347.0,2026-09-29T16:51:21.672Z,347.3,2026-09-29T16:51:21.574Z,445.4
2026-09-29T16:51:22.072Z,2026-09-29T16:51:22.175Z,2026-09-29T10:51:22.175-06:00,2.35,47,False,AUTO,0,0,-0.543737,0.41654,-131.859934,0.014324,-0.014324,0.040107,39.0187759,-104.8936044,2167.34,1.967,0.0,0.0,0.0,228.15,0.0,0.0,39.0187759,-104.8936044,2165.9,0.01,132.7,32,6,0.7,1.25,0.002,0.006,-0.006,0,-0.078453,0.0,-9.816457,0.002,0.0,0.0,50,-196,141,15.608,0.01,748,77,,1000,1000,1000,1000,0.021,0.022,0.022,0,0,0,831,0.0078,0.0021,0.0186,0.0269,784.815,46.09,-180.0,0.0,0.0,2026-09-29T16:51:22.066Z,0.002,6.987,0,245.7,0,0,0,0,2026-09-29T16:51:21.669Z,403.0,2026-09-29T16:51:22.069Z,2.6,2026-09-29T16:51:22.070Z,2.0,-10,0,-1000,0,-1,-1,2026-09-29T16:51:22.068Z,4.0,2026-09-29T16:51:21.970Z,102.3,2026-09-29T16:51:22.066Z,5.3,1790700681681360,1934469,2026-09-29T16:51:21.574Z,497.9,,,,400,,,1,2026-09-29T16:51:22.068Z,3.6,15.608,0.01,77,27.7,0.0,0,1198627887,2026-09-29T16:51:21.969Z,103.3,5.24,0.021,1,2026-09-29T16:51:21.573Z,498.6,,,,,,,,,,,,,,,,,,,228,2167.34,2026-09-29T16:51:22.067Z,4.9,0,0,0,0,2026-09-29T16:51:22.067Z,4.5,1508,1514,1529,1493,255,2026-09-29T16:51:21.969Z,102.6,0.03,0.06,0.0,0.0,0.03,2026-09-29T16:51:21.969Z,103.0,2026-09-29T16:51:21.574Z,498.2,2026-09-29T16:51:21.673Z,398.8,2026-09-29T16:51:21.673Z,399.1,2026-09-29T16:51:21.672Z,399.4,2026-09-29T16:51:21.574Z,497.6
2026-09-29T16:51:22.120Z,2026-09-29T16:51:22.223Z,2026-09-29T10:51:22.223-06:00,2.4,48,False,AUTO,0,0,-0.542591,0.415967,-131.862799,0.03495,-0.010886,0.022345,39.0187759,-104.8936044,2167.34,1.967,0.0,0.0,0.0,228.15,0.0,0.0,39.0187759,-104.8936044,2165.9,0.01,132.7,32,6,0.7,1.25,0.002,0.006,-0.006,0,-0.068647,0.009807,-9.80665,0.002,0.001,0.0,50,-196,141,15.608,0.01,748,77,,1000,1000,1000,1000,0.021,0.022,0.022,0,0,0,831,0.0078,0.0021,0.0186,0.0269,784.815,46.09,-180.0,0.0,0.0,2026-09-29T16:51:22.116Z,0.002,4.86,0,295.7,0,0,0,0,2026-09-29T16:51:21.669Z,450.9,2026-09-29T16:51:22.117Z,2.6,2026-09-29T16:51:22.118Z,2.0,-10,0,-1000,0,-1,-1,2026-09-29T16:51:22.068Z,51.9,2026-09-29T16:51:21.970Z,150.2,2026-09-29T16:51:22.066Z,53.2,1790700681681360,1934469,2026-09-29T16:51:21.574Z,545.7,,,,400,,,1,2026-09-29T16:51:22.068Z,51.4,15.608,0.01,77,27.7,0.0,0,1198627887,2026-09-29T16:51:21.969Z,151.2,5.24,0.021,1,2026-09-29T16:51:21.573Z,546.4,,,,,,,,,,,,,,,,,,,228,2167.34,2026-09-29T16:51:22.067Z,52.8,0,0,0,0,2026-09-29T16:51:22.067Z,52.3,1508,1514,1529,1493,255,2026-09-29T16:51:21.969Z,150.5,0.03,0.06,0.0,0.0,0.03,2026-09-29T16:51:21.969Z,150.9,2026-09-29T16:51:21.574Z,546.1,2026-09-29T16:51:21.673Z,446.7,2026-09-29T16:51:21.673Z,447.0,2026-09-29T16:51:21.672Z,447.3,2026-09-29T16:51:21.574Z,545.4
2026-09-29T16:51:22.174Z,2026-09-29T16:51:22.277Z,2026-09-29T10:51:22.277-06:00,2.45,49,False,AUTO,0,0,-0.540872,0.41654,-131.865091,0.008594,0.016043,0.036669,39.0187759,-104.8936044,2167.34,1.965,0.0,0.0,0.0,228.14,0.0,0.0,39.018776,-104.8936045,2165.91,0.02,312.27,32,6,0.7,1.25,0.001,0.006,-0.006,0,-0.068647,0.0,-9.816457,0.002,0.0,0.0,50,-196,141,15.591,0.01,748,77,,1000,1000,1000,1000,0.02,0.022,0.024,0,0,0,831,0.0153,0.0041,0.0154,0.0241,784.825,46.1,-180.0,0.0,0.0,2026-09-29T16:51:22.166Z,0.002,9.318,0,345.7,0,0,0,0,2026-09-29T16:51:21.669Z,505.4,2026-09-29T16:51:22.171Z,3.6,2026-09-29T16:51:22.171Z,3.0,-10,0,-1000,1,0,0,2026-09-29T16:51:22.168Z,6.4,2026-09-29T16:51:22.170Z,4.6,2026-09-29T16:51:22.166Z,7.7,1790700681681360,1934469,2026-09-29T16:51:21.574Z,600.2,,,,400,,,1,2026-09-29T16:51:22.168Z,5.9,15.596,0.01,77,28.2,0.0,0,1198627887,2026-09-29T16:51:22.169Z,5.6,5.24,0.021,1,2026-09-29T16:51:21.573Z,600.9,,,,,,,,,,,,,,,,,,,228,2167.34,2026-09-29T16:51:22.167Z,7.3,0,0,0,0,2026-09-29T16:51:22.167Z,6.8,1508,1514,1529,1493,255,2026-09-29T16:51:22.169Z,4.9,0.03,0.06,0.0,0.0,0.03,2026-09-29T16:51:22.169Z,5.3,2026-09-29T16:51:21.574Z,600.6,2026-09-29T16:51:22.174Z,0.2,2026-09-29T16:51:22.174Z,0.6,2026-09-29T16:51:22.173Z,0.9,2026-09-29T16:51:21.574Z,599.9
2026-09-29T16:51:22.220Z,2026-09-29T16:51:22.323Z,2026-09-29T10:51:22.323-06:00,2.5,50,False,AUTO,0,0,-0.540299,0.41654,-131.867382,0.001719,-0.017762,0.000573,39.0187759,-104.8936044,2167.34,1.965,0.0,0.0,0.0,228.14,0.0,0.0,39.018776,-104.8936045,2165.91,0.02,312.27,32,6,0.7,1.25,0.001,0.006,-0.006,0,-0.078453,0.0,-9.816457,0.002,0.001,0.0,50,-196,141,15.591,0.01,748,77,,1000,1000,1000,1000,0.02,0.022,0.024,0,0,0,831,0.0153,0.0041,0.0154,0.0241,784.825,46.1,-180.0,0.0,0.0,2026-09-29T16:51:22.216Z,0.002,5.242,0,395.7,0,0,0,0,2026-09-29T16:51:21.669Z,551.3,2026-09-29T16:51:22.217Z,2.6,2026-09-29T16:51:22.218Z,1.9,-10,0,-1000,1,0,0,2026-09-29T16:51:22.168Z,52.4,2026-09-29T16:51:22.170Z,50.5,2026-09-29T16:51:22.166Z,53.6,1790700681681360,1934469,2026-09-29T16:51:21.574Z,646.1,,,,400,,,1,2026-09-29T16:51:22.168Z,51.9,15.596,0.01,77,28.2,0.0,0,1198627887,2026-09-29T16:51:22.169Z,51.6,5.24,0.021,1,2026-09-29T16:51:21.573Z,646.8,,,,,,,,,,,,,,,,,,,228,2167.34,2026-09-29T16:51:22.167Z,53.2,0,0,0,0,2026-09-29T16:51:22.167Z,52.8,1508,1514,1529,1493,255,2026-09-29T16:51:22.169Z,50.9,0.03,0.06,0.0,0.0,0.03,2026-09-29T16:51:22.169Z,51.2,2026-09-29T16:51:21.574Z,646.5,2026-09-29T16:51:22.174Z,46.2,2026-09-29T16:51:22.174Z,46.6,2026-09-29T16:51:22.173Z,46.9,2026-09-29T16:51:21.574Z,645.8
2026-09-29T16:51:22.272Z,2026-09-29T16:51:22.375Z,2026-09-29T10:51:22.375-06:00,2.55,51,False,AUTO,0,0,-0.540299,0.414821,-131.869674,-0.018908,-0.008594,0.035523,39.0187759,-104.8936044,2167.34,1.962,0.0,0.0,0.0,228.14,0.0,0.0,39.018776,-104.8936045,2165.91,0.02,312.27,32,6,0.7,1.25,0.001,0.007,-0.007,0,-0.078453,0.0,-9.816457,0.002,0.001,0.0,49,-196,141,15.596,0.01,748,77,,1000,1000,1000,1000,0.02,0.022,0.024,0,0,0,831,0.0153,0.0041,0.0154,0.0241,784.825,46.1,-180.0,0.0,0.0,2026-09-29T16:51:22.266Z,0.002,7.344,0,445.7,0,0,0,0,2026-09-29T16:51:21.669Z,603.4,2026-09-29T16:51:22.270Z,2.6,2026-09-29T16:51:22.270Z,1.9,-10,0,-1000,0,-1,0,2026-09-29T16:51:22.268Z,4.0,2026-09-29T16:51:22.170Z,102.6,2026-09-29T16:51:22.267Z,5.3,1790700681681360,1934469,2026-09-29T16:51:21.574Z,698.2,,,,400,,,1,2026-09-29T16:51:22.269Z,3.6,15.596,0.01,77,28.2,0.0,0,1198627887,2026-09-29T16:51:22.169Z,103.7,5.24,0.021,1,2026-09-29T16:51:21.573Z,698.9,,,,,,,,,,,,,,,,,,,228,2167.34,2026-09-29T16:51:22.267Z,5.0,0,0,0,0,2026-09-29T16:51:22.268Z,4.5,1508,1514,1529,1493,255,2026-09-29T16:51:22.169Z,103.0,0.03,0.06,0.0,0.0,0.03,2026-09-29T16:51:22.169Z,103.3,2026-09-29T16:51:21.574Z,698.6,2026-09-29T16:51:22.174Z,98.3,2026-09-29T16:51:22.174Z,98.7,2026-09-29T16:51:22.173Z,99.0,2026-09-29T16:51:21.574Z,697.9
2026-09-29T16:51:22.320Z,2026-09-29T16:51:22.423Z,2026-09-29T10:51:22.423-06:00,2.6,52,False,AUTO,0,0,-0.53858,0.415394,-131.872539,0.04641,0.003438,0.034377,39.0187759,-104.8936044,2167.34,1.962,0.0,0.0,0.0,228.14,0.0,0.0,39.018776,-104.8936045,2165.91,0.02,312.27,32,6,0.7,1.25,0.001,0.007,-0.007,0,-0.068647,0.0,-9.80665,0.001,0.001,0.0,49,-196,141,15.596,0.01,748,77,,1000,1000,1000,1000,0.02,0.022,0.024,0,0,0,831,0.0153,0.0041,0.0154,0.0241,784.825,46.1,-180.0,0.0,0.0,2026-09-29T16:51:22.316Z,0.002,4.865,0,495.7,0,0,0,0,2026-09-29T16:51:21.669Z,650.9,2026-09-29T16:51:22.317Z,2.6,2026-09-29T16:51:22.318Z,2.0,-10,0,-1000,0,-1,0,2026-09-29T16:51:22.268Z,51.6,2026-09-29T16:51:22.170Z,150.2,2026-09-29T16:51:22.267Z,52.8,1790700681681360,1934469,2026-09-29T16:51:21.574Z,745.7,,,,400,,,1,2026-09-29T16:51:22.269Z,51.1,15.596,0.01,77,28.2,0.0,0,1198627887,2026-09-29T16:51:22.169Z,151.2,5.24,0.021,1,2026-09-29T16:51:21.573Z,746.4,,,,,,,,,,,,,,,,,,,228,2167.34,2026-09-29T16:51:22.267Z,52.5,0,0,0,0,2026-09-29T16:51:22.268Z,52.0,1508,1514,1529,1493,255,2026-09-29T16:51:22.169Z,150.5,0.03,0.06,0.0,0.0,0.03,2026-09-29T16:51:22.169Z,150.9,2026-09-29T16:51:21.574Z,746.1,2026-09-29T16:51:22.174Z,145.8,2026-09-29T16:51:22.174Z,146.2,2026-09-29T16:51:22.173Z,146.5,2026-09-29T16:51:21.574Z,745.4
2026-09-29T16:51:22.373Z,2026-09-29T16:51:22.476Z,2026-09-29T10:51:22.476-06:00,2.65,53,False,AUTO,0,0,-0.538007,0.415394,-131.875404,-0.004011,-0.030367,0.019481,39.0187759,-104.8936044,2167.34,1.96,0.0,0.0,0.0,228.13,0.0,0.0,39.0187759,-104.8936044,2165.91,0.0,90.0,32,6,0.7,1.25,0.001,0.008,-0.008,0,-0.078453,0.0,-9.796843,0.002,0.0,0.0,50,-196,141,15.595,0.01,748,77,,1000,1000,1000,1000,0.02,0.022,0.024,0,0,0,831,0.0153,0.0041,0.0154,0.0241,784.825,46.1,-180.0,0.0,0.0,2026-09-29T16:51:22.366Z,0.002,8.715,0,545.7,0,0,0,0,2026-09-29T16:51:21.669Z,704.7,2026-09-29T16:51:22.371Z,2.5,2026-09-29T16:51:22.372Z,1.9,-10,0,-1001,0,0,0,2026-09-29T16:51:22.368Z,5.7,2026-09-29T16:51:22.370Z,3.9,2026-09-29T16:51:22.366Z,7.0,1790700681681360,1934469,2026-09-29T16:51:21.574Z,799.5,,,,400,,,1,2026-09-29T16:51:22.368Z,5.3,15.604,0.01,77,28.0,0.0,0,1198627887,2026-09-29T16:51:22.369Z,4.9,5.24,0.021,1,2026-09-29T16:51:21.573Z,800.2,,,,,,,,,,,,,,,,,,,228,2167.34,2026-09-29T16:51:22.367Z,6.6,0,0,0,0,2026-09-29T16:51:22.367Z,6.2,1508,1514,1529,1493,255,2026-09-29T16:51:22.369Z,4.3,0.03,0.06,0.0,0.0,0.03,2026-09-29T16:51:22.369Z,4.6,2026-09-29T16:51:21.574Z,799.9,2026-09-29T16:51:22.174Z,199.6,2026-09-29T16:51:22.174Z,199.9,2026-09-29T16:51:22.173Z,200.2,2026-09-29T16:51:21.574Z,799.2
2026-09-29T16:51:22.420Z,2026-09-29T16:51:22.523Z,2026-09-29T10:51:22.523-06:00,2.7,54,False,AUTO,0,0,-0.538007,0.414821,-131.878842,-0.008594,-0.014324,0.016043,39.0187759,-104.8936044,2167.34,1.96,0.0,0.0,0.0,228.13,0.0,0.0,39.0187759,-104.8936044,2165.91,0.0,90.0,32,6,0.7,1.25,0.001,0.008,-0.008,0,-0.068647,0.0,-9.816457,0.002,0.0,0.0,50,-196,141,15.595,0.01,748,77,,1000,1000,1000,1000,0.02,0.022,0.024,0,0,0,831,0.0153,0.0041,0.0154,0.0241,784.825,46.1,-180.0,0.0,0.0,2026-09-29T16:51:22.416Z,0.002,4.847,0,595.7,0,0,0,0,2026-09-29T16:51:21.669Z,750.9,2026-09-29T16:51:22.417Z,2.6,2026-09-29T16:51:22.418Z,2.0,-10,0,-1001,0,0,0,2026-09-29T16:51:22.368Z,52.0,2026-09-29T16:51:22.370Z,50.2,2026-09-29T16:51:22.366Z,53.2,1790700681681360,1934469,2026-09-29T16:51:21.574Z,845.7,,,,400,,,1,2026-09-29T16:51:22.368Z,51.5,15.604,0.01,77,28.0,0.0,0,1198627887,2026-09-29T16:51:22.369Z,51.2,5.24,0.021,1,2026-09-29T16:51:21.573Z,846.4,,,,,,,,,,,,,,,,,,,228,2167.34,2026-09-29T16:51:22.367Z,52.9,0,0,0,0,2026-09-29T16:51:22.367Z,52.4,1508,1514,1529,1493,255,2026-09-29T16:51:22.369Z,50.5,0.03,0.06,0.0,0.0,0.03,2026-09-29T16:51:22.369Z,50.9,2026-09-29T16:51:21.574Z,846.1,2026-09-29T16:51:22.174Z,245.8,2026-09-29T16:51:22.174Z,246.2,2026-09-29T16:51:22.173Z,246.5,2026-09-29T16:51:21.574Z,845.4
2026-09-29T16:51:22.472Z,2026-09-29T16:51:22.575Z,2026-09-29T10:51:22.575-06:00,2.75,55,False,AUTO,0,0,-0.536861,0.414248,-131.881133,0.014897,-0.002292,0.00573,39.0187759,-104.8936044,2167.33,1.958,0.0,0.0,0.0,228.13,0.0,0.0,39.0187759,-104.8936044,2165.91,0.0,90.0,32,6,0.7,1.25,0.002,0.008,-0.008,0,-0.068647,0.009807,-9.816457,0.002,0.0,0.0,49,-196,141,15.604,0.01,748,77,,1000,1000,1000,1000,0.02,0.022,0.024,0,0,0,831,0.0153,0.0041,0.0154,0.0241,784.825,46.1,-180.0,0.0,0.0,2026-09-29T16:51:22.466Z,0.002,7.264,0,645.7,0,0,0,0,2026-09-29T16:51:21.669Z,803.3,2026-09-29T16:51:22.469Z,3.0,2026-09-29T16:51:22.470Z,2.4,-10,0,-1002,1,-1,0,2026-09-29T16:51:22.468Z,4.4,2026-09-29T16:51:22.370Z,102.6,2026-09-29T16:51:22.466Z,5.7,1790700681681360,1934469,2026-09-29T16:51:21.574Z,898.1,,,,400,,,1,2026-09-29T16:51:22.468Z,3.9,15.604,0.01,77,28.0,0.0,0,1198627887,2026-09-29T16:51:22.369Z,103.6,5.24,0.021,1,2026-09-29T16:51:21.573Z,898.8,,,,,,,,,,,,,,,,,,,228,2167.33,2026-09-29T16:51:22.467Z,5.3,0,0,0,0,2026-09-29T16:51:22.467Z,4.8,1508,1514,1529,1493,255,2026-09-29T16:51:22.369Z,102.9,0.03,0.06,0.0,0.0,0.03,2026-09-29T16:51:22.369Z,103.3,2026-09-29T16:51:21.574Z,898.5,2026-09-29T16:51:22.174Z,298.2,2026-09-29T16:51:22.174Z,298.6,2026-09-29T16:51:22.173Z,298.9,2026-09-29T16:51:21.574Z,897.8
2026-09-29T16:51:22.520Z,2026-09-29T16:51:22.623Z,2026-09-29T10:51:22.623-06:00,2.8,56,False,AUTO,0,0,-0.536288,0.415394,-131.883425,0.008021,0.020626,0.022918,39.0187759,-104.8936044,2167.33,1.958,0.0,0.0,0.0,228.13,0.0,0.0,39.0187759,-104.8936044,2165.91,0.0,90.0,32,6,0.7,1.25,0.002,0.008,-0.008,0,-0.078453,0.009807,-9.816457,0.002,0.0,0.0,49,-196,141,15.604,0.01,748,77,,1000,1000,1000,1000,0.02,0.022,0.024,0,0,0,831,0.0153,0.0041,0.0154,0.0241,784.825,46.1,-180.0,0.0,0.0,2026-09-29T16:51:22.516Z,0.002,5.544,0,695.7,0,3,81,3,2026-09-29T16:51:22.517Z,3.6,2026-09-29T16:51:22.518Z,2.6,2026-09-29T16:51:22.518Z,1.9,-10,0,-1002,1,-1,0,2026-09-29T16:51:22.468Z,52.7,2026-09-29T16:51:22.370Z,150.9,2026-09-29T16:51:22.466Z,53.9,1790700681681360,1934469,2026-09-29T16:51:21.574Z,946.4,,,,400,,,1,2026-09-29T16:51:22.468Z,52.2,15.604,0.01,77,28.0,0.0,0,1198627887,2026-09-29T16:51:22.369Z,151.9,5.24,0.021,1,2026-09-29T16:51:21.573Z,947.1,,,,,,,,,,,,,,,,,,,228,2167.33,2026-09-29T16:51:22.467Z,53.6,0,0,0,0,2026-09-29T16:51:22.467Z,53.1,1508,1514,1529,1493,255,2026-09-29T16:51:22.369Z,151.2,0.03,0.06,0.0,0.0,0.03,2026-09-29T16:51:22.369Z,151.6,2026-09-29T16:51:21.574Z,946.8,2026-09-29T16:51:22.174Z,346.5,2026-09-29T16:51:22.174Z,346.9,2026-09-29T16:51:22.173Z,347.2,2026-09-29T16:51:21.574Z,946.1
2026-09-29T16:51:22.574Z,2026-09-29T16:51:22.677Z,2026-09-29T10:51:22.677-06:00,2.85,57,False,AUTO,0,0,-0.537434,0.414248,-131.884571,-0.038388,-0.002865,0.035523,39.0187759,-104.8936044,2167.33,1.957,0.0,0.0,0.0,228.12,0.0,0.0,39.0187759,-104.8936044,2165.9,0.01,163.61,32,6,0.7,1.25,0.002,0.008,-0.008,0,-0.068647,0.0,-9.796843,0.001,0.0,0.0,50,-196,141,15.596,0.01,748,77,,1000,1000,1000,1000,0.02,0.022,0.024,0,0,0,831,0.0153,0.0041,0.0154,0.0241,784.825,46.1,-180.0,0.0,0.0,2026-09-29T16:51:22.566Z,0.002,9.612,0,745.7,0,3,81,3,2026-09-29T16:51:22.517Z,57.6,2026-09-29T16:51:22.571Z,3.9,2026-09-29T16:51:22.571Z,3.2,-10,0,-1000,0,-1,0,2026-09-29T16:51:22.568Z,6.7,2026-09-29T16:51:22.570Z,4.9,2026-09-29T16:51:22.566Z,8.0,1790700682681406,1935469,2026-09-29T16:51:22.574Z,0.6,,,,400,,,1,2026-09-29T16:51:22.568Z,6.2,15.596,0.01,77,28.7,0.0,0,1198627887,2026-09-29T16:51:22.569Z,5.9,5.23,0.007,1,2026-09-29T16:51:22.573Z,1.2,,,,,,,,,,,,,,,,,,,228,2167.33,2026-09-29T16:51:22.567Z,7.6,0,0,0,0,2026-09-29T16:51:22.567Z,7.1,1508,1514,1529,1493,255,2026-09-29T16:51:22.569Z,5.2,0.03,0.06,0.0,0.0,0.03,2026-09-29T16:51:22.569Z,5.6,2026-09-29T16:51:22.574Z,0.9,2026-09-29T16:51:22.174Z,400.5,2026-09-29T16:51:22.174Z,400.9,2026-09-29T16:51:22.173Z,401.2,2026-09-29T16:51:22.574Z,0.2
2026-09-29T16:51:22.620Z,2026-09-29T16:51:22.723Z,2026-09-29T10:51:22.723-06:00,2.9,58,False,AUTO,0,0,-0.53858,0.414821,-131.88629,-0.051566,0.029794,0.045264,39.0187759,-104.8936044,2167.33,1.957,0.0,0.0,0.0,228.12,0.0,0.0,39.0187759,-104.8936044,2165.9,0.01,163.61,32,6,0.7,1.25,0.002,0.008,-0.008,0,-0.078453,0.0,-9.80665,0.002,0.0,0.0,50,-196,141,15.596,0.01,748,77,,1000,1000,1000,1000,0.02,0.022,0.024,0,0,0,831,0.0153,0.0041,0.0154,0.0241,784.825,46.1,-180.0,0.0,0.0,2026-09-29T16:51:22.616Z,0.002,4.929,0,795.7,0,3,81,3,2026-09-29T16:51:22.517Z,102.9,2026-09-29T16:51:22.617Z,2.6,2026-09-29T16:51:22.618Z,2.0,-10,0,-1000,0,-1,0,2026-09-29T16:51:22.568Z,52.0,2026-09-29T16:51:22.570Z,50.2,2026-09-29T16:51:22.566Z,53.3,1790700682681406,1935469,2026-09-29T16:51:22.574Z,45.9,,,,400,,,1,2026-09-29T16:51:22.568Z,51.6,15.596,0.01,77,28.7,0.0,0,1198627887,2026-09-29T16:51:22.569Z,51.2,5.23,0.007,1,2026-09-29T16:51:22.573Z,46.6,,,,,,,,,,,,,,,,,,,228,2167.33,2026-09-29T16:51:22.567Z,52.9,0,0,0,0,2026-09-29T16:51:22.567Z,52.5,1508,1514,1529,1493,255,2026-09-29T16:51:22.569Z,50.6,0.03,0.06,0.0,0.0,0.03,2026-09-29T16:51:22.569Z,50.9,2026-09-29T16:51:22.574Z,46.3,2026-09-29T16:51:22.174Z,445.9,2026-09-29T16:51:22.174Z,446.2,2026-09-29T16:51:22.173Z,446.6,2026-09-29T16:51:22.574Z,45.6
2026-09-29T16:51:22.673Z,2026-09-29T16:51:22.776Z,2026-09-29T10:51:22.776-06:00,2.95,59,False,AUTO,0,0,-0.538007,0.413676,-131.887436,0.017189,-0.040107,0.068182,39.0187759,-104.8936044,2167.33,1.955,0.0,0.0,0.0,228.12,0.0,0.0,39.0187759,-104.8936044,2165.9,0.01,163.61,32,6,0.7,1.25,0.001,0.008,-0.008,0,-0.068647,0.0,-9.80665,0.002,0.001,0.0,49,-197,141,15.596,0.01,748,77,,1000,1000,1000,1000,0.022,0.023,0.025,0,0,0,831,0.0019,0.0023,0.0023,0.0241,784.847,46.1,-180.0,0.0,0.0,2026-09-29T16:51:22.666Z,0.002,8.544,0,845.7,0,0,0,0,2026-09-29T16:51:22.669Z,4.5,2026-09-29T16:51:22.670Z,3.6,2026-09-29T16:51:22.670Z,2.9,-10,0,-1001,0,0,0,2026-09-29T16:51:22.668Z,5.6,2026-09-29T16:51:22.570Z,103.8,2026-09-29T16:51:22.666Z,6.9,1790700682681406,1935469,2026-09-29T16:51:22.574Z,99.5,,,,400,,,1,2026-09-29T16:51:22.668Z,5.1,15.596,0.01,77,28.7,0.0,0,1198627887,2026-09-29T16:51:22.569Z,104.8,5.23,0.007,1,2026-09-29T16:51:22.573Z,100.1,,,,,,,,,,,,,,,,,,,228,2167.33,2026-09-29T16:51:22.667Z,6.5,0,0,0,0,2026-09-29T16:51:22.667Z,6.0,1508,1514,1529,1493,255,2026-09-29T16:51:22.569Z,104.1,0.03,0.06,0.0,0.0,0.03,2026-09-29T16:51:22.569Z,104.5,2026-09-29T16:51:22.574Z,99.8,2026-09-29T16:51:22.673Z,0.2,2026-09-29T16:51:22.673Z,0.6,2026-09-29T16:51:22.672Z,0.9,2026-09-29T16:51:22.574Z,99.1
2026-09-29T16:51:22.720Z,2026-09-29T16:51:22.823Z,2026-09-29T10:51:22.823-06:00,3.0,60,False,AUTO,0,0,-0.539153,0.413103,-131.889728,-0.016043,0.0,0.064744,39.0187759,-104.8936044,2167.33,1.955,0.0,0.0,0.0,228.12,0.0,0.0,39.0187759,-104.8936044,2165.9,0.01,163.61,32,6,0.7,1.25,0.001,0.008,-0.008,0,-0.068647,0.0,-9.80665,0.002,0.001,0.0,49,-197,141,15.596,0.01,748,77,,1000,1000,1000,1000,0.022,0.023,0.025,0,0,0,831,0.0019,0.0023,0.0023,0.0241,784.847,46.1,-180.0,0.0,0.0,2026-09-29T16:51:22.716Z,0.002,4.846,0,895.7,0,0,0,0,2026-09-29T16:51:22.669Z,50.9,2026-09-29T16:51:22.717Z,2.6,2026-09-29T16:51:22.718Z,2.0,-10,0,-1001,0,0,0,2026-09-29T16:51:22.668Z,52.0,2026-09-29T16:51:22.570Z,150.1,2026-09-29T16:51:22.666Z,53.2,1790700682681406,1935469,2026-09-29T16:51:22.574Z,145.8,,,,400,,,1,2026-09-29T16:51:22.668Z,51.5,15.596,0.01,77,28.7,0.0,0,1198627887,2026-09-29T16:51:22.569Z,151.2,5.23,0.007,1,2026-09-29T16:51:22.573Z,146.5,,,,,,,,,,,,,,,,,,,228,2167.33,2026-09-29T16:51:22.667Z,52.9,0,0,0,0,2026-09-29T16:51:22.667Z,52.4,1508,1514,1529,1493,255,2026-09-29T16:51:22.569Z,150.5,0.03,0.06,0.0,0.0,0.03,2026-09-29T16:51:22.569Z,150.8,2026-09-29T16:51:22.574Z,146.2,2026-09-29T16:51:22.673Z,46.6,2026-09-29T16:51:22.673Z,46.9,2026-09-29T16:51:22.672Z,47.3,2026-09-29T16:51:22.574Z,145.5
2026-09-29T16:51:22.776Z,2026-09-29T16:51:22.879Z,2026-09-29T10:51:22.879-06:00,3.05,61,False,AUTO,0,0,-0.539153,0.41253,-131.891447,0.016043,-0.026356,0.076203,39.0187759,-104.8936044,2167.33,1.953,0.0,0.0,0.0,228.11,0.0,0.0,39.0187759,-104.8936043,2165.9,0.0,239.03,32,6,0.7,1.25,0.002,0.009,-0.008,0,-0.078453,0.0,-9.816457,0.001,0.0,0.0,50,-196,141,15.582,0.01,748,77,,1000,1000,1000,1000,0.022,0.023,0.025,0,0,0,831,0.0019,0.0023,0.0023,0.0241,784.847,46.1,-180.0,0.0,0.0,2026-09-29T16:51:22.766Z,0.004,11.825,0,945.7,0,0,0,0,2026-09-29T16:51:22.669Z,107.5,2026-09-29T16:51:22.773Z,3.7,2026-09-29T16:51:22.773Z,2.8,-10,0,-1000,0,0,0,2026-09-29T16:51:22.769Z,7.7,2026-09-29T16:51:22.771Z,5.0,2026-09-29T16:51:22.767Z,9.5,1790700682681406,1935469,2026-09-29T16:51:22.574Z,202.4,,,,400,,,1,2026-09-29T16:51:22.769Z,7.0,15.592,0.01,77,28.1,0.0,0,1198627887,2026-09-29T16:51:22.770Z,6.6,5.23,0.007,1,2026-09-29T16:51:22.573Z,203.1,,,,,,,,,,,,,,,,,,,228,2167.33,2026-09-29T16:51:22.767Z,9.0,0,0,0,0,2026-09-29T16:51:22.768Z,8.3,1508,1514,1529,1493,255,2026-09-29T16:51:22.771Z,5.5,0.03,0.06,0.0,0.0,0.03,2026-09-29T16:51:22.770Z,6.0,2026-09-29T16:51:22.574Z,202.8,2026-09-29T16:51:22.673Z,103.2,2026-09-29T16:51:22.673Z,103.5,2026-09-29T16:51:22.672Z,103.8,2026-09-29T16:51:22.574Z,202.1
2026-09-29T16:51:22.821Z,2026-09-29T16:51:22.924Z,2026-09-29T10:51:22.924-06:00,3.1,62,False,AUTO,0,0,-0.53858,0.41253,-131.893166,0.006303,0.025783,0.026356,39.0187759,-104.8936044,2167.33,1.953,0.0,0.0,0.0,228.11,0.0,0.0,39.0187759,-104.8936043,2165.9,0.0,239.03,32,6,0.7,1.25,0.002,0.009,-0.008,0,-0.068647,0.0,-9.80665,0.002,0.0,0.0,50,-196,141,15.582,0.01,748,77,,1000,1000,1000,1000,0.022,0.023,0.025,0,0,0,831,0.0019,0.0023,0.0023,0.0241,784.847,46.1,-180.0,0.0,0.0,2026-09-29T16:51:22.816Z,0.003,6.824,0,995.7,0,0,0,0,2026-09-29T16:51:22.669Z,152.4,2026-09-29T16:51:22.818Z,3.6,2026-09-29T16:51:22.818Z,2.7,-10,0,-1000,0,0,0,2026-09-29T16:51:22.769Z,52.6,2026-09-29T16:51:22.771Z,50.0,2026-09-29T16:51:22.767Z,54.4,1790700682681406,1935469,2026-09-29T16:51:22.574Z,247.4,,,,400,,,1,2026-09-29T16:51:22.769Z,52.0,15.592,0.01,77,28.1,0.0,0,1198627887,2026-09-29T16:51:22.770Z,51.5,5.23,0.007,1,2026-09-29T16:51:22.573Z,248.0,,,,,,,,,,,,,,,,,,,228,2167.33,2026-09-29T16:51:22.767Z,53.9,0,0,0,0,2026-09-29T16:51:22.768Z,53.2,1508,1514,1529,1493,255,2026-09-29T16:51:22.771Z,50.5,0.03,0.06,0.0,0.0,0.03,2026-09-29T16:51:22.770Z,51.0,2026-09-29T16:51:22.574Z,247.7,2026-09-29T16:51:22.673Z,148.1,2026-09-29T16:51:22.673Z,148.4,2026-09-29T16:51:22.672Z,148.8,2026-09-29T16:51:22.574Z,247.0
2026-09-29T16:51:22.875Z,2026-09-29T16:51:22.978Z,2026-09-29T10:51:22.978-06:00,3.15,63,False,AUTO,0,0,-0.53858,0.411957,-131.895457,-0.007448,-0.010313,0.013178,39.0187759,-104.8936044,2167.32,1.948,0.0,0.0,0.0,228.11,0.0,0.0,39.0187759,-104.8936043,2165.9,0.0,239.03,32,6,0.7,1.25,0.002,0.01,-0.01,0,-0.078453,0.0,-9.80665,0.002,0.001,0.0,49,-197,141,15.592,0.01,748,77,,1000,1000,1000,1000,0.022,0.023,0.025,0,0,0,831,0.0019,0.0023,0.0023,0.0241,784.847,46.1,-180.0,0.0,0.0,2026-09-29T16:51:22.866Z,0.003,11.046,0,-9.3,0,0,0,0,2026-09-29T16:51:22.669Z,206.7,2026-09-29T16:51:22.871Z,4.8,2026-09-29T16:51:22.871Z,3.9,-10,0,-1001,0,0,0,2026-09-29T16:51:22.869Z,6.9,2026-09-29T16:51:22.771Z,104.2,2026-09-29T16:51:22.867Z,8.7,1790700682681406,1935469,2026-09-29T16:51:22.574Z,301.6,,,,400,,,1,2026-09-29T16:51:22.869Z,6.2,15.592,0.01,77,28.1,0.0,0,1198627887,2026-09-29T16:51:22.770Z,105.8,5.23,0.007,1,2026-09-29T16:51:22.573Z,302.2,,,,,,,,,,,,,,,,,,,228,2167.32,2026-09-29T16:51:22.867Z,8.2,0,0,0,0,2026-09-29T16:51:22.868Z,7.5,1508,1514,1529,1493,255,2026-09-29T16:51:22.771Z,104.7,0.03,0.06,0.0,0.0,0.03,2026-09-29T16:51:22.770Z,105.2,2026-09-29T16:51:22.574Z,301.9,2026-09-29T16:51:22.673Z,202.4,2026-09-29T16:51:22.673Z,202.7,2026-09-29T16:51:22.672Z,203.0,2026-09-29T16:51:22.574Z,301.3
2026-09-29T16:51:22.921Z,2026-09-29T16:51:23.024Z,2026-09-29T10:51:23.024-06:00,3.2,64,False,AUTO,0,0,-0.53858,0.411384,-131.897176,0.000573,-0.013751,0.016043,39.0187759,-104.8936044,2167.32,1.948,0.0,0.0,0.0,228.11,0.0,0.0,39.0187759,-104.8936043,2165.9,0.0,239.03,32,6,0.7,1.25,0.002,0.01,-0.01,0,-0.078453,0.0,-9.816457,0.002,0.0,0.0,49,-197,141,15.592,0.01,748,77,,1000,1000,1000,1000,0.022,0.023,0.025,0,0,0,831,0.0019,0.0023,0.0023,0.0241,784.847,46.1,-180.0,0.0,0.0,2026-09-29T16:51:22.916Z,0.002,6.817,0,40.7,0,0,0,0,2026-09-29T16:51:22.669Z,252.4,2026-09-29T16:51:22.918Z,3.6,2026-09-29T16:51:22.918Z,2.7,-10,0,-1001,0,0,0,2026-09-29T16:51:22.869Z,52.6,2026-09-29T16:51:22.771Z,150.0,2026-09-29T16:51:22.867Z,54.4,1790700682681406,1935469,2026-09-29T16:51:22.574Z,347.3,,,,400,,,1,2026-09-29T16:51:22.869Z,52.0,15.592,0.01,77,28.1,0.0,0,1198627887,2026-09-29T16:51:22.770Z,151.5,5.23,0.007,1,2026-09-29T16:51:22.573Z,348.0,,,,,,,,,,,,,,,,,,,228,2167.32,2026-09-29T16:51:22.867Z,53.9,0,0,0,0,2026-09-29T16:51:22.868Z,53.2,1508,1514,1529,1493,255,2026-09-29T16:51:22.771Z,150.5,0.03,0.06,0.0,0.0,0.03,2026-09-29T16:51:22.770Z,151.0,2026-09-29T16:51:22.574Z,347.7,2026-09-29T16:51:22.673Z,248.1,2026-09-29T16:51:22.673Z,248.4,2026-09-29T16:51:22.672Z,248.8,2026-09-29T16:51:22.574Z,347.0
2026-09-29T16:51:22.976Z,2026-09-29T16:51:23.079Z,2026-09-29T10:51:23.079-06:00,3.25,65,False,AUTO,0,0,-0.538007,0.410811,-131.898895,0.004011,-0.009167,0.018908,39.0187759,-104.8936044,2167.32,1.943,0.0,0.0,0.01,228.11,0.0,0.0,39.0187759,-104.8936043,2165.91,0.01,227.29,32,6,0.7,1.25,0.002,0.011,-0.01,0,-0.068647,0.009807,-9.816457,0.002,0.0,0.0,49,-196,141,15.587,0.02,748,77,,1000,1000,1000,1000,0.022,0.023,0.025,0,0,0,831,0.0019,0.0023,0.0023,0.0241,784.847,46.1,-180.0,0.0,0.0,2026-09-29T16:51:22.966Z,0.002,11.661,0,90.7,0,0,0,0,2026-09-29T16:51:22.669Z,307.3,2026-09-29T16:51:22.972Z,3.7,2026-09-29T16:51:22.973Z,2.8,-10,0,-1001,0,0,0,2026-09-29T16:51:22.968Z,7.7,2026-09-29T16:51:22.971Z,5.0,2026-09-29T16:51:22.967Z,9.4,1790700682681406,1935469,2026-09-29T16:51:22.574Z,402.2,,,,400,,,1,2026-09-29T16:51:22.969Z,7.0,15.598,0.01,77,27.8,0.0,0,1198627887,2026-09-29T16:51:22.970Z,6.5,5.23,0.007,1,2026-09-29T16:51:22.573Z,402.9,,,,,,,,,,,,,,,,,,,228,2167.32,2026-09-29T16:51:22.967Z,9.0,0,0,0,0,2026-09-29T16:51:22.968Z,8.3,1508,1514,1529,1493,255,2026-09-29T16:51:22.971Z,5.5,0.03,0.06,0.0,0.0,0.03,2026-09-29T16:51:22.970Z,6.0,2026-09-29T16:51:22.574Z,402.6,2026-09-29T16:51:22.673Z,303.0,2026-09-29T16:51:22.673Z,303.3,2026-09-29T16:51:22.672Z,303.6,2026-09-29T16:51:22.574Z,401.9
2026-09-29T16:51:23.021Z,2026-09-29T16:51:23.124Z,2026-09-29T10:51:23.124-06:00,3.3,66,False,AUTO,0,0,-0.539153,0.410238,-131.900614,-0.042972,0.009167,0.042972,39.0187759,-104.8936044,2167.32,1.943,0.0,0.0,0.01,228.11,0.0,0.0,39.0187759,-104.8936043,2165.91,0.01,227.29,32,6,0.7,1.25,0.002,0.011,-0.01,0,-0.078453,0.0,-9.816457,0.002,0.001,0.0,49,-196,141,15.587,0.02,748,77,,1000,1000,1000,1000,0.022,0.023,0.025,0,0,0,831,0.0019,0.0023,0.0023,0.0241,784.847,46.1,-180.0,0.0,0.0,2026-09-29T16:51:23.016Z,0.003,6.953,0,140.7,0,0,0,0,2026-09-29T16:51:22.669Z,352.5,2026-09-29T16:51:23.018Z,3.7,2026-09-29T16:51:23.019Z,2.7,-10,0,-1001,0,0,0,2026-09-29T16:51:22.968Z,52.9,2026-09-29T16:51:22.971Z,50.2,2026-09-29T16:51:22.967Z,54.7,1790700682681406,1935469,2026-09-29T16:51:22.574Z,447.5,,,,400,,,1,2026-09-29T16:51:22.969Z,52.2,15.598,0.01,77,27.8,0.0,0,1198627887,2026-09-29T16:51:22.970Z,51.8,5.23,0.007,1,2026-09-29T16:51:22.573Z,448.1,,,,,,,,,,,,,,,,,,,228,2167.32,2026-09-29T16:51:22.967Z,54.2,0,0,0,0,2026-09-29T16:51:22.968Z,53.5,1508,1514,1529,1493,255,2026-09-29T16:51:22.971Z,50.7,0.03,0.06,0.0,0.0,0.03,2026-09-29T16:51:22.970Z,51.3,2026-09-29T16:51:22.574Z,447.8,2026-09-29T16:51:22.673Z,348.2,2026-09-29T16:51:22.673Z,348.6,2026-09-29T16:51:22.672Z,348.9,2026-09-29T16:51:22.574Z,447.1
2026-09-29T16:51:23.074Z,2026-09-29T16:51:23.177Z,2026-09-29T10:51:23.177-06:00,3.35,67,False,AUTO,0,0,-0.540299,0.409665,-131.902906,-0.004584,-0.005157,0.028648,39.0187759,-104.8936044,2167.32,1.941,0.0,0.0,0.01,228.1,0.0,0.0,39.0187759,-104.8936043,2165.91,0.01,227.29,32,6,0.7,1.25,0.003,0.011,-0.011,0,-0.068647,0.0,-9.816457,0.002,0.0,0.0,50,-196,141,15.598,0.01,748,77,,1000,1000,1000,1000,0.022,0.023,0.025,0,0,0,831,0.0019,0.0023,0.0023,0.0241,784.847,46.1,-180.0,0.0,0.0,2026-09-29T16:51:23.066Z,0.002,9.723,0,190.7,0,0,0,0,2026-09-29T16:51:22.669Z,405.3,2026-09-29T16:51:23.070Z,3.6,2026-09-29T16:51:23.071Z,2.7,-10,0,-1001,0,-1,0,2026-09-29T16:51:23.068Z,5.7,2026-09-29T16:51:22.971Z,103.1,2026-09-29T16:51:23.067Z,7.5,1790700682681406,1935469,2026-09-29T16:51:22.574Z,500.3,,,,400,,,1,2026-09-29T16:51:23.069Z,5.1,15.598,0.01,77,27.8,0.0,0,1198627887,2026-09-29T16:51:22.970Z,104.6,5.23,0.007,1,2026-09-29T16:51:22.573Z,500.9,,,,,,,,,,,,,,,,,,,228,2167.32,2026-09-29T16:51:23.067Z,7.0,0,0,0,0,2026-09-29T16:51:23.068Z,6.3,1508,1514,1529,1493,255,2026-09-29T16:51:22.971Z,103.6,0.03,0.06,0.0,0.0,0.03,2026-09-29T16:51:22.970Z,104.1,2026-09-29T16:51:22.574Z,500.6,2026-09-29T16:51:22.673Z,401.1,2026-09-29T16:51:22.673Z,401.4,2026-09-29T16:51:22.672Z,401.7,2026-09-29T16:51:22.574Z,499.9
2026-09-29T16:51:23.121Z,2026-09-29T16:51:23.224Z,2026-09-29T10:51:23.224-06:00,3.4,68,False,AUTO,0,0,-0.53858,0.409092,-131.904625,0.033805,-0.017189,0.045264,39.0187759,-104.8936044,2167.32,1.941,0.0,0.0,0.01,228.1,0.0,0.0,39.0187759,-104.8936043,2165.91,0.01,227.29,32,6,0.7,1.25,0.003,0.011,-0.011,0,-0.068647,0.0,-9.80665,0.002,0.001,0.0,50,-196,141,15.598,0.01,748,77,,1000,1000,1000,1000,0.022,0.023,0.025,0,0,0,831,0.0019,0.0023,0.0023,0.0241,784.847,46.1,-180.0,0.0,0.0,2026-09-29T16:51:23.116Z,0.003,6.859,0,240.7,0,0,0,0,2026-09-29T16:51:22.669Z,452.4,2026-09-29T16:51:23.118Z,3.7,2026-09-29T16:51:23.118Z,2.7,-10,0,-1001,0,-1,0,2026-09-29T16:51:23.068Z,52.8,2026-09-29T16:51:22.971Z,150.1,2026-09-29T16:51:23.067Z,54.6,1790700682681406,1935469,2026-09-29T16:51:22.574Z,547.4,,,,400,,,1,2026-09-29T16:51:23.069Z,52.1,15.598,0.01,77,27.8,0.0,0,1198627887,2026-09-29T16:51:22.970Z,151.7,5.23,0.007,1,2026-09-29T16:51:22.573Z,548.0,,,,,,,,,,,,,,,,,,,228,2167.32,2026-09-29T16:51:23.067Z,54.1,0,0,0,0,2026-09-29T16:51:23.068Z,53.4,1508,1514,1529,1493,255,2026-09-29T16:51:22.971Z,150.6,0.03,0.06,0.0,0.0,0.03,2026-09-29T16:51:22.970Z,151.2,2026-09-29T16:51:22.574Z,547.7,2026-09-29T16:51:22.673Z,448.1,2026-09-29T16:51:22.673Z,448.5,2026-09-29T16:51:22.672Z,448.8,2026-09-29T16:51:22.574Z,547.0
2026-09-29T16:51:23.177Z,2026-09-29T16:51:23.280Z,2026-09-29T10:51:23.280-06:00,3.45,69,False,AUTO,0,0,-0.539726,0.409092,-131.90749,-0.022918,0.008021,0.001719,39.0187759,-104.8936044,2167.32,1.94,0.0,0.0,0.01,228.1,0.0,0.0,39.0187759,-104.8936043,2165.9,0.01,151.38,32,6,0.7,1.25,0.003,0.011,-0.011,0,-0.078453,0.0,-9.80665,0.001,0.0,0.0,50,-196,141,15.585,0.01,748,77,,1000,1000,1000,1000,0.022,0.024,0.022,0,0,0,831,0.0177,0.0023,0.0083,0.0202,784.827,46.09,-180.0,0.0,0.0,2026-09-29T16:51:23.166Z,0.006,13.299,0,290.7,0,0,0,0,2026-09-29T16:51:22.669Z,508.9,2026-09-29T16:51:23.172Z,5.3,2026-09-29T16:51:23.173Z,4.4,-10,0,-1001,0,-1,0,2026-09-29T16:51:23.168Z,9.2,2026-09-29T16:51:23.171Z,6.6,2026-09-29T16:51:23.167Z,11.0,1790700682681406,1935469,2026-09-29T16:51:22.574Z,603.8,,,,400,,,1,2026-09-29T16:51:23.169Z,8.6,15.584,0.0,77,27.7,0.0,0,1198627887,2026-09-29T16:51:23.170Z,8.1,5.23,0.007,1,2026-09-29T16:51:22.573Z,604.4,,,,,,,,,,,,,,,,,,,228,2167.32,2026-09-29T16:51:23.167Z,10.5,0,0,0,0,2026-09-29T16:51:23.168Z,9.8,1508,1514,1529,1493,255,2026-09-29T16:51:23.171Z,7.1,0.03,0.06,0.0,0.0,0.03,2026-09-29T16:51:23.170Z,7.6,2026-09-29T16:51:22.574Z,604.1,2026-09-29T16:51:23.177Z,0.3,2026-09-29T16:51:23.177Z,0.8,2026-09-29T16:51:23.176Z,1.2,2026-09-29T16:51:22.574Z,603.5
2026-09-29T16:51:23.221Z,2026-09-29T16:51:23.324Z,2026-09-29T10:51:23.324-06:00,3.5,70,False,AUTO,0,0,-0.540299,0.409092,-131.909208,-0.003438,-0.001146,0.006303,39.0187759,-104.8936044,2167.32,1.94,0.0,0.0,0.01,228.1,0.0,0.0,39.0187759,-104.8936043,2165.9,0.01,151.38,32,6,0.7,1.25,0.003,0.011,-0.011,0,-0.068647,0.0,-9.816457,0.002,0.0,0.0,50,-196,141,15.585,0.01,748,77,,1000,1000,1000,1000,0.022,0.024,0.022,0,0,0,831,0.0177,0.0023,0.0083,0.0202,784.827,46.09,-180.0,0.0,0.0,2026-09-29T16:51:23.216Z,0.003,6.84,0,340.7,0,0,0,0,2026-09-29T16:51:22.669Z,552.4,2026-09-29T16:51:23.218Z,3.6,2026-09-29T16:51:23.218Z,2.7,-10,0,-1001,0,-1,0,2026-09-29T16:51:23.168Z,52.8,2026-09-29T16:51:23.171Z,50.1,2026-09-29T16:51:23.167Z,54.6,1790700682681406,1935469,2026-09-29T16:51:22.574Z,647.4,,,,400,,,1,2026-09-29T16:51:23.169Z,52.1,15.584,0.0,77,27.7,0.0,0,1198627887,2026-09-29T16:51:23.170Z,51.7,5.23,0.007,1,2026-09-29T16:51:22.573Z,648.0,,,,,,,,,,,,,,,,,,,228,2167.32,2026-09-29T16:51:23.167Z,54.1,0,0,0,0,2026-09-29T16:51:23.168Z,53.4,1508,1514,1529,1493,255,2026-09-29T16:51:23.171Z,50.6,0.03,0.06,0.0,0.0,0.03,2026-09-29T16:51:23.170Z,51.2,2026-09-29T16:51:22.574Z,647.7,2026-09-29T16:51:23.177Z,43.9,2026-09-29T16:51:23.177Z,44.3,2026-09-29T16:51:23.176Z,44.8,2026-09-29T16:51:22.574Z,647.0
2026-09-29T16:51:23.274Z,2026-09-29T16:51:23.377Z,2026-09-29T10:51:23.377-06:00,3.55,71,False,AUTO,0,0,-0.539726,0.410238,-131.912073,0.011459,0.016043,0.007448,39.0187759,-104.8936044,2167.31,1.939,0.0,0.0,0.01,228.09,0.0,0.0,39.0187759,-104.8936043,2165.9,0.01,151.38,32,6,0.7,1.25,0.003,0.011,-0.011,0,-0.078453,0.0,-9.80665,0.002,0.001,0.0,49,-197,141,15.584,0.0,748,77,,1000,1000,1000,1000,0.022,0.024,0.022,0,0,0,831,0.0177,0.0023,0.0083,0.0202,784.827,46.09,-180.0,0.0,0.0,2026-09-29T16:51:23.266Z,0.002,9.672,0,390.7,0,0,0,0,2026-09-29T16:51:22.669Z,605.3,2026-09-29T16:51:23.270Z,3.7,2026-09-29T16:51:23.271Z,2.8,-10,0,-1001,0,0,0,2026-09-29T16:51:23.268Z,5.7,2026-09-29T16:51:23.171Z,103.0,2026-09-29T16:51:23.267Z,7.5,1790700682681406,1935469,2026-09-29T16:51:22.574Z,700.3,,,,400,,,1,2026-09-29T16:51:23.269Z,5.0,15.584,0.0,77,27.7,0.0,0,1198627887,2026-09-29T16:51:23.170Z,104.6,5.23,0.007,1,2026-09-29T16:51:22.573Z,700.9,,,,,,,,,,,,,,,,,,,228,2167.31,2026-09-29T16:51:23.267Z,7.0,0,0,0,0,2026-09-29T16:51:23.268Z,6.3,1508,1514,1529,1493,255,2026-09-29T16:51:23.171Z,103.5,0.03,0.06,0.0,0.0,0.03,2026-09-29T16:51:23.170Z,104.0,2026-09-29T16:51:22.574Z,700.6,2026-09-29T16:51:23.177Z,96.8,2026-09-29T16:51:23.177Z,97.2,2026-09-29T16:51:23.176Z,97.7,2026-09-29T16:51:22.574Z,699.9
2026-09-29T16:51:23.321Z,2026-09-29T16:51:23.424Z,2026-09-29T10:51:23.424-06:00,3.6,72,False,AUTO,0,0,-0.539153,0.410238,-131.914938,0.018908,-0.011459,0.022918,39.0187759,-104.8936044,2167.31,1.939,0.0,0.0,0.01,228.09,0.0,0.0,39.0187759,-104.8936043,2165.9,0.01,151.38,32,6,0.7,1.25,0.003,0.011,-0.011,0,-0.068647,0.0,-9.816457,0.002,0.0,0.0,49,-197,141,15.584,0.0,748,77,,1000,1000,1000,1000,0.022,0.024,0.022,0,0,0,831,0.0177,0.0023,0.0083,0.0202,784.827,46.09,-180.0,0.0,0.0,2026-09-29T16:51:23.316Z,0.002,6.786,0,440.7,0,0,0,0,2026-09-29T16:51:22.669Z,652.4,2026-09-29T16:51:23.318Z,3.6,2026-09-29T16:51:23.318Z,2.7,-10,0,-1001,0,0,0,2026-09-29T16:51:23.268Z,52.8,2026-09-29T16:51:23.171Z,150.1,2026-09-29T16:51:23.267Z,54.5,1790700682681406,1935469,2026-09-29T16:51:22.574Z,747.3,,,,400,,,1,2026-09-29T16:51:23.269Z,52.1,15.584,0.0,77,27.7,0.0,0,1198627887,2026-09-29T16:51:23.170Z,151.6,5.23,0.007,1,2026-09-29T16:51:22.573Z,747.9,,,,,,,,,,,,,,,,,,,228,2167.31,2026-09-29T16:51:23.267Z,54.0,0,0,0,0,2026-09-29T16:51:23.268Z,53.3,1508,1514,1529,1493,255,2026-09-29T16:51:23.171Z,150.6,0.03,0.06,0.0,0.0,0.03,2026-09-29T16:51:23.170Z,151.1,2026-09-29T16:51:22.574Z,747.6,2026-09-29T16:51:23.177Z,143.8,2026-09-29T16:51:23.177Z,144.3,2026-09-29T16:51:23.176Z,144.7,2026-09-29T16:51:22.574Z,746.9
2026-09-29T16:51:23.376Z,2026-09-29T16:51:23.479Z,2026-09-29T10:51:23.479-06:00,3.65,73,False,AUTO,0,0,-0.539153,0.410811,-131.917803,0.002292,0.022345,0.028075,39.0187759,-104.8936044,2167.31,1.938,0.0,0.0,0.01,228.09,0.0,0.0,39.0187759,-104.8936043,2165.9,0.02,4.57,32,6,0.7,1.25,0.003,0.011,-0.011,0,-0.08826,0.0,-9.80665,0.002,0.0,0.0,49,-196,141,15.582,0.01,748,77,,1000,1000,1000,1000,0.022,0.024,0.022,0,0,0,831,0.0177,0.0023,0.0083,0.0202,784.827,46.09,-180.0,0.0,0.0,2026-09-29T16:51:23.366Z,0.023,11.606,0,490.7,0,0,0,0,2026-09-29T16:51:22.669Z,707.3,2026-09-29T16:51:23.372Z,3.7,2026-09-29T16:51:23.373Z,2.8,-10,0,-1000,0,-1,0,2026-09-29T16:51:23.368Z,7.7,2026-09-29T16:51:23.371Z,5.0,2026-09-29T16:51:23.367Z,9.4,1790700682681406,1935469,2026-09-29T16:51:22.574Z,802.2,,,,400,,,1,2026-09-29T16:51:23.369Z,7.0,15.588,0.01,77,28.2,0.0,0,1198627887,2026-09-29T16:51:23.370Z,6.5,5.23,0.007,1,2026-09-29T16:51:22.573Z,802.8,,,,,,,,,,,,,,,,,,,228,2167.31,2026-09-29T16:51:23.367Z,8.9,0,0,0,0,2026-09-29T16:51:23.368Z,8.2,1508,1514,1529,1493,255,2026-09-29T16:51:23.371Z,5.5,0.03,0.06,0.0,0.0,0.03,2026-09-29T16:51:23.370Z,6.0,2026-09-29T16:51:22.574Z,802.5,2026-09-29T16:51:23.177Z,198.7,2026-09-29T16:51:23.177Z,199.2,2026-09-29T16:51:23.176Z,199.6,2026-09-29T16:51:22.574Z,801.9
2026-09-29T16:51:23.421Z,2026-09-29T16:51:23.524Z,2026-09-29T10:51:23.524-06:00,3.7,74,False,AUTO,0,0,-0.539153,0.411384,-131.920668,0.030367,0.006875,-0.000573,39.0187759,-104.8936044,2167.31,1.938,0.0,0.0,0.01,228.09,0.0,0.0,39.0187759,-104.8936043,2165.9,0.02,4.57,32,6,0.7,1.25,0.003,0.011,-0.011,0,-0.08826,0.0,-9.80665,0.002,0.001,0.0,49,-196,141,15.582,0.01,748,77,,1000,1000,1000,1000,0.022,0.024,0.022,0,0,0,831,0.0177,0.0023,0.0083,0.0202,784.827,46.09,-180.0,0.0,0.0,2026-09-29T16:51:23.416Z,0.002,6.794,0,540.7,0,0,0,0,2026-09-29T16:51:22.669Z,752.4,2026-09-29T16:51:23.418Z,3.6,2026-09-29T16:51:23.418Z,2.7,-10,0,-1000,0,-1,0,2026-09-29T16:51:23.368Z,52.8,2026-09-29T16:51:23.371Z,50.1,2026-09-29T16:51:23.367Z,54.5,1790700682681406,1935469,2026-09-29T16:51:22.574Z,847.3,,,,400,,,1,2026-09-29T16:51:23.369Z,52.1,15.588,0.01,77,28.2,0.0,0,1198627887,2026-09-29T16:51:23.370Z,51.6,5.23,0.007,1,2026-09-29T16:51:22.573Z,848.0,,,,,,,,,,,,,,,,,,,228,2167.31,2026-09-29T16:51:23.367Z,54.0,0,0,0,0,2026-09-29T16:51:23.368Z,53.3,1508,1514,1529,1493,255,2026-09-29T16:51:23.371Z,50.6,0.03,0.06,0.0,0.0,0.03,2026-09-29T16:51:23.370Z,51.1,2026-09-29T16:51:22.574Z,847.6,2026-09-29T16:51:23.177Z,243.8,2026-09-29T16:51:23.177Z,244.3,2026-09-29T16:51:23.176Z,244.7,2026-09-29T16:51:22.574Z,847.0
2026-09-29T16:51:23.474Z,2026-09-29T16:51:23.577Z,2026-09-29T10:51:23.577-06:00,3.75,75,False,AUTO,0,0,-0.53858,0.411957,-131.923532,0.016616,-0.001146,0.006303,39.0187759,-104.8936044,2167.31,1.937,0.0,0.0,0.01,228.08,0.0,0.0,39.0187759,-104.8936043,2165.9,0.02,4.57,32,6,0.7,1.25,0.003,0.011,-0.011,0,-0.068647,0.009807,-9.80665,0.002,0.001,0.0,49,-197,141,15.588,0.01,748,77,,1000,1000,1000,1000,0.022,0.024,0.022,0,0,0,831,0.0177,0.0023,0.0083,0.0202,784.827,46.09,-180.0,0.0,0.0,2026-09-29T16:51:23.466Z,0.022,9.67,0,590.7,0,0,0,0,2026-09-29T16:51:22.669Z,805.3,2026-09-29T16:51:23.470Z,3.6,2026-09-29T16:51:23.471Z,2.8,-10,-1,-1001,0,-1,0,2026-09-29T16:51:23.468Z,5.7,2026-09-29T16:51:23.371Z,103.1,2026-09-29T16:51:23.467Z,7.5,1790700682681406,1935469,2026-09-29T16:51:22.574Z,900.3,,,,400,,,1,2026-09-29T16:51:23.469Z,5.1,15.588,0.01,77,28.2,0.0,0,1198627887,2026-09-29T16:51:23.370Z,104.6,5.23,0.007,1,2026-09-29T16:51:22.573Z,900.9,,,,,,,,,,,,,,,,,,,228,2167.31,2026-09-29T16:51:23.467Z,7.0,0,0,0,0,2026-09-29T16:51:23.468Z,6.3,1508,1514,1529,1493,255,2026-09-29T16:51:23.371Z,103.6,0.03,0.06,0.0,0.0,0.03,2026-09-29T16:51:23.370Z,104.1,2026-09-29T16:51:22.574Z,900.6,2026-09-29T16:51:23.177Z,296.8,2026-09-29T16:51:23.177Z,297.2,2026-09-29T16:51:23.176Z,297.7,2026-09-29T16:51:22.574Z,899.9
2026-09-29T16:51:23.522Z,2026-09-29T16:51:23.625Z,2026-09-29T10:51:23.625-06:00,3.8,76,False,AUTO,0,0,-0.539153,0.41253,-131.926397,-0.026356,-0.002865,0.030367,39.0187759,-104.8936044,2167.31,1.937,0.0,0.0,0.01,228.08,0.0,0.0,39.0187759,-104.8936043,2165.9,0.02,4.57,32,6,0.7,1.25,0.003,0.011,-0.011,0,-0.078453,0.0,-9.826263,0.002,0.001,0.0,49,-197,141,15.588,0.01,748,77,,1000,1000,1000,1000,0.022,0.024,0.022,0,0,0,831,0.0177,0.0023,0.0083,0.0202,784.827,46.09,-180.0,0.0,0.0,2026-09-29T16:51:23.516Z,0.002,7.741,0,640.7,0,3,81,3,2026-09-29T16:51:23.517Z,5.0,2026-09-29T16:51:23.518Z,3.7,2026-09-29T16:51:23.519Z,2.8,-10,-1,-1001,0,-1,0,2026-09-29T16:51:23.468Z,53.8,2026-09-29T16:51:23.371Z,151.1,2026-09-29T16:51:23.467Z,55.5,1790700682681406,1935469,2026-09-29T16:51:22.574Z,948.3,,,,400,,,1,2026-09-29T16:51:23.469Z,53.1,15.588,0.01,77,28.2,0.0,0,1198627887,2026-09-29T16:51:23.370Z,152.6,5.23,0.007,1,2026-09-29T16:51:22.573Z,949.0,,,,,,,,,,,,,,,,,,,228,2167.31,2026-09-29T16:51:23.467Z,55.0,0,0,0,0,2026-09-29T16:51:23.468Z,54.4,1508,1514,1529,1493,255,2026-09-29T16:51:23.371Z,151.6,0.03,0.06,0.0,0.0,0.03,2026-09-29T16:51:23.370Z,152.1,2026-09-29T16:51:22.574Z,948.6,2026-09-29T16:51:23.177Z,344.8,2026-09-29T16:51:23.177Z,345.3,2026-09-29T16:51:23.176Z,345.8,2026-09-29T16:51:22.574Z,948.0
2026-09-29T16:51:23.579Z,2026-09-29T16:51:23.682Z,2026-09-29T10:51:23.682-06:00,3.85,77,False,AUTO,0,0,-0.53858,0.413103,-131.928116,0.021199,0.018335,0.035523,39.0187759,-104.8936044,2167.31,1.936,0.0,0.0,0.01,228.08,0.0,0.0,39.0187759,-104.8936043,2165.9,0.0,45.0,32,6,0.7,1.25,0.003,0.011,-0.011,0,-0.068647,0.009807,-9.816457,0.002,0.0,0.0,50,-196,141,15.591,0.01,748,77,,1000,1000,1000,1000,0.022,0.024,0.022,0,0,0,831,0.0177,0.0023,0.0083,0.0202,784.827,46.09,-180.0,0.0,0.0,2026-09-29T16:51:23.566Z,0.021,14.495,0,690.7,0,0,0,0,2026-09-29T16:51:23.579Z,0.3,2026-09-29T16:51:23.572Z,6.4,2026-09-29T16:51:23.573Z,5.5,-9,0,-1001,0,0,0,2026-09-29T16:51:23.568Z,10.5,2026-09-29T16:51:23.571Z,7.7,2026-09-29T16:51:23.567Z,12.2,1790700683681436,1936469,2026-09-29T16:51:23.577Z,1.7,,,,400,,,1,2026-09-29T16:51:23.569Z,9.8,15.59,0.01,77,28.6,0.0,0,1198627887,2026-09-29T16:51:23.570Z,9.3,5.244,0.016,1,2026-09-29T16:51:23.576Z,2.6,,,,,,,,,,,,,,,,,,,228,2167.31,2026-09-29T16:51:23.567Z,11.7,0,0,0,0,2026-09-29T16:51:23.568Z,11.1,1508,1514,1529,1493,255,2026-09-29T16:51:23.571Z,8.2,0.03,0.06,0.0,0.0,0.03,2026-09-29T16:51:23.570Z,8.8,2026-09-29T16:51:23.577Z,2.1,2026-09-29T16:51:23.177Z,401.6,2026-09-29T16:51:23.177Z,402.1,2026-09-29T16:51:23.176Z,402.5,2026-09-29T16:51:23.578Z,1.3
2026-09-29T16:51:23.621Z,2026-09-29T16:51:23.724Z,2026-09-29T10:51:23.724-06:00,3.9,78,False,AUTO,0,0,-0.53858,0.413103,-131.930981,0.002865,-0.017762,0.050993,39.0187759,-104.8936044,2167.31,1.936,0.0,0.0,0.01,228.08,0.0,0.0,39.0187759,-104.8936043,2165.9,0.0,45.0,32,6,0.7,1.25,0.003,0.011,-0.011,0,-0.078453,-0.009807,-9.816457,0.002,0.0,0.0,50,-196,141,15.591,0.01,748,77,,1000,1000,1000,1000,0.022,0.024,0.022,0,0,0,831,0.0177,0.0023,0.0083,0.0202,784.827,46.09,-180.0,0.0,0.0,2026-09-29T16:51:23.616Z,0.003,6.809,0,740.7,0,0,0,0,2026-09-29T16:51:23.579Z,42.6,2026-09-29T16:51:23.618Z,3.6,2026-09-29T16:51:23.618Z,2.7,-9,0,-1001,0,0,0,2026-09-29T16:51:23.568Z,52.7,2026-09-29T16:51:23.571Z,50.0,2026-09-29T16:51:23.567Z,54.5,1790700683681436,1936469,2026-09-29T16:51:23.577Z,43.9,,,,400,,,1,2026-09-29T16:51:23.569Z,52.0,15.59,0.01,77,28.6,0.0,0,1198627887,2026-09-29T16:51:23.570Z,51.6,5.244,0.016,1,2026-09-29T16:51:23.576Z,44.8,,,,,,,,,,,,,,,,,,,228,2167.31,2026-09-29T16:51:23.567Z,54.0,0,0,0,0,2026-09-29T16:51:23.568Z,53.3,1508,1514,1529,1493,255,2026-09-29T16:51:23.571Z,50.5,0.03,0.06,0.0,0.0,0.03,2026-09-29T16:51:23.570Z,51.1,2026-09-29T16:51:23.577Z,44.4,2026-09-29T16:51:23.177Z,443.9,2026-09-29T16:51:23.177Z,444.3,2026-09-29T16:51:23.176Z,444.8,2026-09-29T16:51:23.578Z,43.5
2026-09-29T16:51:23.675Z,2026-09-29T16:51:23.778Z,2026-09-29T10:51:23.778-06:00,3.95,79,False,AUTO,0,0,-0.538007,0.414248,-131.933846,-0.03094,0.010313,0.060734,39.0187759,-104.8936044,2167.31,1.936,0.0,0.0,0.01,228.07,0.0,0.0,39.0187759,-104.8936043,2165.9,0.0,45.0,32,6,0.7,1.25,0.003,0.011,-0.011,0,-0.078453,0.0,-9.80665,0.002,0.0,0.0,49,-196,141,15.59,0.01,748,77,,1000,1000,1000,1000,0.022,0.026,0.021,0,0,0,831,0.0077,0.0016,0.0053,0.0238,784.802,46.08,-180.0,0.0,0.0,2026-09-29T16:51:23.666Z,0.003,11.143,0,790.7,0,0,0,0,2026-09-29T16:51:23.579Z,97.0,2026-09-29T16:51:23.671Z,5.0,2026-09-29T16:51:23.671Z,4.1,-10,1,-1001,0,0,-1,2026-09-29T16:51:23.668Z,7.2,2026-09-29T16:51:23.571Z,104.4,2026-09-29T16:51:23.667Z,8.9,1790700683681436,1936469,2026-09-29T16:51:23.577Z,98.3,,,,400,,,1,2026-09-29T16:51:23.669Z,6.5,15.59,0.01,77,28.6,0.0,0,1198627887,2026-09-29T16:51:23.570Z,106.0,5.244,0.016,1,2026-09-29T16:51:23.576Z,99.2,,,,,,,,,,,,,,,,,,,228,2167.31,2026-09-29T16:51:23.667Z,8.4,0,0,0,0,2026-09-29T16:51:23.668Z,7.8,1508,1514,1529,1493,255,2026-09-29T16:51:23.571Z,104.9,0.03,0.06,0.0,0.0,0.03,2026-09-29T16:51:23.570Z,105.5,2026-09-29T16:51:23.577Z,98.8,2026-09-29T16:51:23.675Z,0.3,2026-09-29T16:51:23.675Z,0.8,2026-09-29T16:51:23.674Z,1.2,2026-09-29T16:51:23.578Z,97.9
2026-09-29T16:51:23.721Z,2026-09-29T16:51:23.824Z,2026-09-29T10:51:23.824-06:00,4.0,80,False,AUTO,0,0,-0.537434,0.413676,-131.935564,0.027502,-0.010886,0.051566,39.0187759,-104.8936044,2167.31,1.936,0.0,0.0,0.01,228.07,0.0,0.0,39.0187759,-104.8936043,2165.9,0.0,45.0,32,6,0.7,1.25,0.003,0.011,-0.011,0,-0.078453,0.0,-9.816457,0.002,0.0,0.0,49,-196,141,15.59,0.01,748,77,,1000,1000,1000,1000,0.022,0.026,0.021,0,0,0,831,0.0077,0.0016,0.0053,0.0238,784.802,46.08,-180.0,0.0,0.0,2026-09-29T16:51:23.716Z,0.002,6.802,0,840.7,0,0,0,0,2026-09-29T16:51:23.579Z,142.6,2026-09-29T16:51:23.718Z,3.6,2026-09-29T16:51:23.718Z,2.7,-10,1,-1001,0,0,-1,2026-09-29T16:51:23.668Z,52.8,2026-09-29T16:51:23.571Z,150.0,2026-09-29T16:51:23.667Z,54.5,1790700683681436,1936469,2026-09-29T16:51:23.577Z,143.9,,,,400,,,1,2026-09-29T16:51:23.669Z,52.1,15.59,0.01,77,28.6,0.0,0,1198627887,2026-09-29T16:51:23.570Z,151.6,5.244,0.016,1,2026-09-29T16:51:23.576Z,144.8,,,,,,,,,,,,,,,,,,,228,2167.31,2026-09-29T16:51:23.667Z,54.0,0,0,0,0,2026-09-29T16:51:23.668Z,53.4,1508,1514,1529,1493,255,2026-09-29T16:51:23.571Z,150.5,0.03,0.06,0.0,0.0,0.03,2026-09-29T16:51:23.570Z,151.1,2026-09-29T16:51:23.577Z,144.4,2026-09-29T16:51:23.675Z,45.9,2026-09-29T16:51:23.675Z,46.4,2026-09-29T16:51:23.674Z,46.8,2026-09-29T16:51:23.578Z,143.5
2026-09-29T16:51:23.776Z,2026-09-29T16:51:23.879Z,2026-09-29T10:51:23.879-06:00,4.05,81,False,AUTO,0,0,-0.536861,0.413676,-131.937283,0.023491,-0.029794,0.053285,39.0187759,-104.8936044,2167.31,1.938,0.0,0.0,0.01,228.07,0.0,0.0,39.0187759,-104.8936043,2165.9,0.01,307.87,32,6,0.7,1.25,0.003,0.011,-0.01,0,-0.08826,0.0,-9.80665,0.002,0.0,0.0,49,-196,141,15.591,0.01,748,77,,1000,1000,1000,1000,0.022,0.026,0.021,0,0,0,831,0.0077,0.0016,0.0053,0.0238,784.802,46.08,-180.0,0.0,0.0,2026-09-29T16:51:23.766Z,0.002,11.723,0,890.7,0,0,0,0,2026-09-29T16:51:23.579Z,197.5,2026-09-29T16:51:23.772Z,3.7,2026-09-29T16:51:23.773Z,2.8,-10,0,-1001,0,0,0,2026-09-29T16:51:23.768Z,7.8,2026-09-29T16:51:23.771Z,5.0,2026-09-29T16:51:23.767Z,9.5,1790700683681436,1936469,2026-09-29T16:51:23.577Z,198.9,,,,400,,,1,2026-09-29T16:51:23.769Z,7.1,15.589,0.01,77,27.7,0.0,0,1198627887,2026-09-29T16:51:23.769Z,6.7,5.244,0.016,1,2026-09-29T16:51:23.576Z,199.8,,,,,,,,,,,,,,,,,,,228,2167.31,2026-09-29T16:51:23.767Z,9.0,0,0,0,0,2026-09-29T16:51:23.768Z,8.4,1508,1514,1529,1493,255,2026-09-29T16:51:23.771Z,5.5,0.03,0.06,0.0,0.0,0.03,2026-09-29T16:51:23.770Z,6.0,2026-09-29T16:51:23.577Z,199.3,2026-09-29T16:51:23.675Z,100.9,2026-09-29T16:51:23.675Z,101.4,2026-09-29T16:51:23.674Z,101.8,2026-09-29T16:51:23.578Z,198.5
2026-09-29T16:51:23.821Z,2026-09-29T16:51:23.924Z,2026-09-29T10:51:23.924-06:00,4.1,82,False,AUTO,0,0,-0.536861,0.413676,-131.940721,-0.006875,-0.002292,0.006303,39.0187759,-104.8936044,2167.31,1.938,0.0,0.0,0.01,228.07,0.0,0.0,39.0187759,-104.8936043,2165.9,0.01,307.87,32,6,0.7,1.25,0.003,0.011,-0.01,0,-0.078453,0.0,-9.80665,0.002,0.0,0.0,49,-196,141,15.591,0.01,748,77,,1000,1000,1000,1000,0.022,0.026,0.021,0,0,0,831,0.0077,0.0016,0.0053,0.0238,784.802,46.08,-180.0,0.0,0.0,2026-09-29T16:51:23.816Z,0.002,6.804,0,940.7,0,0,0,0,2026-09-29T16:51:23.579Z,242.6,2026-09-29T16:51:23.818Z,3.6,2026-09-29T16:51:23.818Z,2.7,-10,0,-1001,0,0,0,2026-09-29T16:51:23.768Z,52.8,2026-09-29T16:51:23.771Z,50.0,2026-09-29T16:51:23.767Z,54.6,1790700683681436,1936469,2026-09-29T16:51:23.577Z,243.9,,,,400,,,1,2026-09-29T16:51:23.769Z,52.2,15.589,0.01,77,27.7,0.0,0,1198627887,2026-09-29T16:51:23.769Z,51.7,5.244,0.016,1,2026-09-29T16:51:23.576Z,244.8,,,,,,,,,,,,,,,,,,,228,2167.31,2026-09-29T16:51:23.767Z,54.1,0,0,0,0,2026-09-29T16:51:23.768Z,53.4,1508,1514,1529,1493,255,2026-09-29T16:51:23.771Z,50.6,0.03,0.06,0.0,0.0,0.03,2026-09-29T16:51:23.770Z,51.1,2026-09-29T16:51:23.577Z,244.4,2026-09-29T16:51:23.675Z,145.9,2026-09-29T16:51:23.675Z,146.4,2026-09-29T16:51:23.674Z,146.8,2026-09-29T16:51:23.578Z,243.5
2026-09-29T16:51:23.874Z,2026-09-29T16:51:23.977Z,2026-09-29T10:51:23.977-06:00,4.15,83,False,AUTO,0,0,-0.535716,0.413103,-131.943013,0.005157,-0.036669,0.057869,39.0187759,-104.8936044,2167.32,1.94,0.0,0.0,0.0,228.06,0.0,0.0,39.0187759,-104.8936043,2165.9,0.01,307.87,32,6,0.7,1.25,0.004,0.01,-0.009,0,-0.078453,0.0,-9.80665,0.002,0.0,0.0,49,-197,141,15.589,0.01,748,77,,1000,1000,1000,1000,0.022,0.026,0.021,0,0,0,831,0.0077,0.0016,0.0053,0.0238,784.802,46.08,-180.0,0.0,0.0,2026-09-29T16:51:23.866Z,0.003,9.791,0,990.7,0,0,0,0,2026-09-29T16:51:23.579Z,295.6,2026-09-29T16:51:23.870Z,3.8,2026-09-29T16:51:23.871Z,2.9,-10,0,-1000,0,0,0,2026-09-29T16:51:23.868Z,5.8,2026-09-29T16:51:23.771Z,103.1,2026-09-29T16:51:23.867Z,7.6,1790700683681436,1936469,2026-09-29T16:51:23.577Z,297.0,,,,400,,,1,2026-09-29T16:51:23.869Z,5.2,15.589,0.01,77,27.7,0.0,0,1198627887,2026-09-29T16:51:23.769Z,104.7,5.244,0.016,1,2026-09-29T16:51:23.576Z,297.9,,,,,,,,,,,,,,,,,,,228,2167.32,2026-09-29T16:51:23.867Z,7.1,0,0,0,0,2026-09-29T16:51:23.868Z,6.4,1508,1514,1529,1493,255,2026-09-29T16:51:23.771Z,103.6,0.03,0.06,0.0,0.0,0.03,2026-09-29T16:51:23.770Z,104.1,2026-09-29T16:51:23.577Z,297.4,2026-09-29T16:51:23.675Z,199.0,2026-09-29T16:51:23.675Z,199.4,2026-09-29T16:51:23.674Z,199.9,2026-09-29T16:51:23.578Z,296.5
2026-09-29T16:51:23.922Z,2026-09-29T16:51:24.025Z,2026-09-29T10:51:24.025-06:00,4.2,84,False,AUTO,0,0,-0.536288,0.413103,-131.945305,-0.004011,-0.006875,0.050993,39.0187759,-104.8936044,2167.32,1.94,0.0,0.0,0.0,228.06,0.0,0.0,39.0187759,-104.8936043,2165.9,0.01,307.87,32,6,0.7,1.25,0.004,0.01,-0.009,0,-0.068647,0.0,-9.816457,0.002,0.0,0.0,49,-197,141,15.589,0.01,748,77,,1000,1000,1000,1000,0.022,0.026,0.021,0,0,0,831,0.0077,0.0016,0.0053,0.0238,784.802,46.08,-180.0,0.0,0.0,2026-09-29T16:51:23.916Z,0.003,7.998,0,-6.3,0,0,0,0,2026-09-29T16:51:23.579Z,343.8,2026-09-29T16:51:23.918Z,4.8,2026-09-29T16:51:23.919Z,3.9,-10,0,-1000,0,0,0,2026-09-29T16:51:23.868Z,54.0,2026-09-29T16:51:23.771Z,151.3,2026-09-29T16:51:23.867Z,55.8,1790700683681436,1936469,2026-09-29T16:51:23.577Z,345.2,,,,400,,,1,2026-09-29T16:51:23.869Z,53.4,15.589,0.01,77,27.7,0.0,0,1198627887,2026-09-29T16:51:23.769Z,152.9,5.244,0.016,1,2026-09-29T16:51:23.576Z,346.1,,,,,,,,,,,,,,,,,,,228,2167.32,2026-09-29T16:51:23.867Z,55.3,0,0,0,0,2026-09-29T16:51:23.868Z,54.6,1508,1514,1529,1493,255,2026-09-29T16:51:23.771Z,151.8,0.03,0.06,0.0,0.0,0.03,2026-09-29T16:51:23.770Z,152.3,2026-09-29T16:51:23.577Z,345.6,2026-09-29T16:51:23.675Z,247.2,2026-09-29T16:51:23.675Z,247.6,2026-09-29T16:51:23.674Z,248.1,2026-09-29T16:51:23.578Z,344.7
2026-09-29T16:51:23.976Z,2026-09-29T16:51:24.079Z,2026-09-29T10:51:24.079-06:00,4.25,85,False,AUTO,0,0,-0.536288,0.41253,-131.94817,-0.010313,-0.001146,0.066463,39.0187759,-104.8936044,2167.32,1.944,0.0,0.0,0.0,228.06,0.0,0.0,39.0187759,-104.8936044,2165.9,0.01,347.9,32,6,0.7,1.25,0.004,0.01,-0.009,0,-0.078453,0.0,-9.80665,0.002,0.0,0.0,50,-196,141,15.599,0.01,748,77,,1000,1000,1000,1000,0.022,0.026,0.021,0,0,0,831,0.0077,0.0016,0.0053,0.0238,784.802,46.08,-180.0,0.0,0.0,2026-09-29T16:51:23.966Z,0.003,11.653,0,43.7,0,0,0,0,2026-09-29T16:51:23.579Z,397.5,2026-09-29T16:51:23.972Z,3.7,2026-09-29T16:51:23.973Z,2.8,-10,0,-1000,0,-1,-1,2026-09-29T16:51:23.968Z,7.7,2026-09-29T16:51:23.971Z,5.0,2026-09-29T16:51:23.967Z,9.4,1790700683681436,1936469,2026-09-29T16:51:23.577Z,398.8,,,,400,,,1,2026-09-29T16:51:23.969Z,7.0,15.589,0.01,77,27.7,0.0,0,1198627887,2026-09-29T16:51:23.970Z,6.5,5.244,0.016,1,2026-09-29T16:51:23.576Z,399.7,,,,,,,,,,,,,,,,,,,228,2167.32,2026-09-29T16:51:23.967Z,8.9,0,0,0,0,2026-09-29T16:51:23.968Z,8.2,1508,1514,1529,1493,255,2026-09-29T16:51:23.971Z,5.5,0.03,0.06,0.0,0.0,0.03,2026-09-29T16:51:23.970Z,6.0,2026-09-29T16:51:23.577Z,399.3,2026-09-29T16:51:23.675Z,300.8,2026-09-29T16:51:23.675Z,301.3,2026-09-29T16:51:23.674Z,301.7,2026-09-29T16:51:23.578Z,398.4
2026-09-29T16:51:24.021Z,2026-09-29T16:51:24.124Z,2026-09-29T10:51:24.124-06:00,4.3,86,False,AUTO,0,0,-0.535716,0.414248,-131.951034,0.024637,0.046983,0.044118,39.0187759,-104.8936044,2167.32,1.944,0.0,0.0,0.0,228.06,0.0,0.0,39.0187759,-104.8936044,2165.9,0.01,347.9,32,6,0.7,1.25,0.004,0.01,-0.009,0,-0.068647,0.0,-9.816457,0.002,0.001,0.0,50,-196,141,15.599,0.01,748,77,,1000,1000,1000,1000,0.022,0.026,0.021,0,0,0,831,0.0077,0.0016,0.0053,0.0238,784.802,46.08,-180.0,0.0,0.0,2026-09-29T16:51:24.016Z,0.002,6.825,0,93.7,0,0,0,0,2026-09-29T16:51:23.579Z,442.6,2026-09-29T16:51:24.018Z,3.6,2026-09-29T16:51:24.018Z,2.7,-10,0,-1000,0,-1,-1,2026-09-29T16:51:23.968Z,52.8,2026-09-29T16:51:23.971Z,50.1,2026-09-29T16:51:23.967Z,54.5,1790700683681436,1936469,2026-09-29T16:51:23.577Z,444.0,,,,400,,,1,2026-09-29T16:51:23.969Z,52.1,15.589,0.01,77,27.7,0.0,0,1198627887,2026-09-29T16:51:23.970Z,51.7,5.244,0.016,1,2026-09-29T16:51:23.576Z,444.8,,,,,,,,,,,,,,,,,,,228,2167.32,2026-09-29T16:51:23.967Z,54.1,0,0,0,0,2026-09-29T16:51:23.968Z,53.4,1508,1514,1529,1493,255,2026-09-29T16:51:23.971Z,50.6,0.03,0.06,0.0,0.0,0.03,2026-09-29T16:51:23.970Z,51.1,2026-09-29T16:51:23.577Z,444.4,2026-09-29T16:51:23.675Z,346.0,2026-09-29T16:51:23.675Z,346.4,2026-09-29T16:51:23.674Z,346.9,2026-09-29T16:51:23.578Z,443.5
2026-09-29T16:51:24.075Z,2026-09-29T16:51:24.178Z,2026-09-29T10:51:24.178-06:00,4.35,87,False,AUTO,0,0,-0.535143,0.414248,-131.953899,0.004011,0.029221,0.040107,39.0187759,-104.8936044,2167.32,1.949,0.0,0.0,0.0,228.05,0.0,0.0,39.0187759,-104.8936044,2165.9,0.01,347.9,32,6,0.7,1.25,0.004,0.01,-0.009,0,-0.078453,0.0,-9.80665,0.002,0.0,0.0,50,-196,141,15.589,0.01,748,77,,1000,1000,1000,1000,0.022,0.026,0.021,0,0,0,831,0.0077,0.0016,0.0053,0.0238,784.802,46.08,-180.0,0.0,0.0,2026-09-29T16:51:24.066Z,0.002,10.468,0,143.7,0,0,0,0,2026-09-29T16:51:23.579Z,496.3,2026-09-29T16:51:24.071Z,4.2,2026-09-29T16:51:24.072Z,3.3,-9,1,-1001,0,-1,0,2026-09-29T16:51:24.068Z,6.4,2026-09-29T16:51:23.971Z,103.8,2026-09-29T16:51:24.067Z,8.2,1790700683681436,1936469,2026-09-29T16:51:23.577Z,497.6,,,,400,,,1,2026-09-29T16:51:24.069Z,5.6,15.589,0.01,77,27.7,0.0,0,1198627887,2026-09-29T16:51:23.970Z,105.3,5.244,0.016,1,2026-09-29T16:51:23.576Z,498.5,,,,,,,,,,,,,,,,,,,228,2167.32,2026-09-29T16:51:24.067Z,7.7,0,0,0,0,2026-09-29T16:51:24.068Z,7.0,1508,1514,1529,1493,255,2026-09-29T16:51:23.971Z,104.3,0.03,0.06,0.0,0.0,0.03,2026-09-29T16:51:23.970Z,104.8,2026-09-29T16:51:23.577Z,498.1,2026-09-29T16:51:23.675Z,399.6,2026-09-29T16:51:23.675Z,400.1,2026-09-29T16:51:23.674Z,400.6,2026-09-29T16:51:23.578Z,497.2
2026-09-29T16:51:24.121Z,2026-09-29T16:51:24.224Z,2026-09-29T10:51:24.224-06:00,4.4,88,False,AUTO,0,0,-0.53457,0.414821,-131.957337,0.019481,-0.007448,-0.014324,39.0187759,-104.8936044,2167.32,1.949,0.0,0.0,0.0,228.05,0.0,0.0,39.0187759,-104.8936044,2165.9,0.01,347.9,32,6,0.7,1.25,0.004,0.01,-0.009,0,-0.068647,0.0,-9.80665,0.002,0.0,0.0,50,-196,141,15.589,0.01,748,77,,1000,1000,1000,1000,0.022,0.026,0.021,0,0,0,831,0.0077,0.0016,0.0053,0.0238,784.802,46.08,-180.0,0.0,0.0,2026-09-29T16:51:24.116Z,0.003,6.827,0,193.7,0,0,0,0,2026-09-29T16:51:23.579Z,542.6,2026-09-29T16:51:24.118Z,3.6,2026-09-29T16:51:24.118Z,2.7,-9,1,-1001,0,-1,0,2026-09-29T16:51:24.068Z,52.7,2026-09-29T16:51:23.971Z,150.1,2026-09-29T16:51:24.067Z,54.6,1790700683681436,1936469,2026-09-29T16:51:23.577Z,544.0,,,,400,,,1,2026-09-29T16:51:24.069Z,51.9,15.589,0.01,77,27.7,0.0,0,1198627887,2026-09-29T16:51:23.970Z,151.7,5.244,0.016,1,2026-09-29T16:51:23.576Z,544.8,,,,,,,,,,,,,,,,,,,228,2167.32,2026-09-29T16:51:24.067Z,54.1,0,0,0,0,2026-09-29T16:51:24.068Z,53.3,1508,1514,1529,1493,255,2026-09-29T16:51:23.971Z,150.6,0.03,0.06,0.0,0.0,0.03,2026-09-29T16:51:23.970Z,151.1,2026-09-29T16:51:23.577Z,544.4,2026-09-29T16:51:23.675Z,446.0,2026-09-29T16:51:23.675Z,446.4,2026-09-29T16:51:23.674Z,446.9,2026-09-29T16:51:23.578Z,543.5
2026-09-29T16:51:24.177Z,2026-09-29T16:51:24.280Z,2026-09-29T10:51:24.280-06:00,4.45,89,False,AUTO,0,0,-0.535143,0.414248,-131.959629,-0.014897,0.001146,-0.037815,39.0187759,-104.8936044,2167.33,1.953,0.0,0.0,0.0,228.05,0.0,0.0,39.0187759,-104.8936044,2165.91,0.0,59.03,32,6,0.7,1.25,0.004,0.009,-0.008,0,-0.078453,0.0,-9.80665,0.002,0.001,0.0,49,-196,141,15.594,0.01,748,77,,1000,1000,1000,1000,0.021,0.026,0.022,0,0,0,831,0.0044,0.0014,0.0024,0.0223,784.798,46.08,-180.0,0.0,0.0,2026-09-29T16:51:24.166Z,0.003,13.05,0,243.7,0,0,0,0,2026-09-29T16:51:23.579Z,598.8,2026-09-29T16:51:24.172Z,5.0,2026-09-29T16:51:24.173Z,4.1,-10,0,-1001,0,-1,1,2026-09-29T16:51:24.168Z,9.0,2026-09-29T16:51:24.171Z,6.3,2026-09-29T16:51:24.167Z,10.7,1790700683681436,1936469,2026-09-29T16:51:23.577Z,600.1,,,,400,,,1,2026-09-29T16:51:24.169Z,8.3,15.586,0.01,77,28.3,0.0,0,1198627887,2026-09-29T16:51:24.170Z,7.9,5.244,0.016,1,2026-09-29T16:51:23.576Z,601.0,,,,,,,,,,,,,,,,,,,228,2167.33,2026-09-29T16:51:24.167Z,10.3,0,0,0,0,2026-09-29T16:51:24.168Z,9.6,1508,1514,1529,1493,255,2026-09-29T16:51:24.171Z,6.8,0.03,0.06,0.0,0.0,0.03,2026-09-29T16:51:24.170Z,7.3,2026-09-29T16:51:23.577Z,600.6,2026-09-29T16:51:24.177Z,0.3,2026-09-29T16:51:24.177Z,0.8,2026-09-29T16:51:24.176Z,1.2,2026-09-29T16:51:23.578Z,599.7
2026-09-29T16:51:24.221Z,2026-09-29T16:51:24.324Z,2026-09-29T10:51:24.324-06:00,4.5,90,False,AUTO,0,0,-0.533997,0.414821,-131.961921,0.012032,0.028075,-0.01547,39.0187759,-104.8936044,2167.33,1.953,0.0,0.0,0.0,228.05,0.0,0.0,39.0187759,-104.8936044,2165.91,0.0,59.03,32,6,0.7,1.25,0.004,0.009,-0.008,0,-0.068647,0.009807,-9.796843,0.002,0.0,0.0,49,-196,141,15.594,0.01,748,77,,1000,1000,1000,1000,0.021,0.026,0.022,0,0,0,831,0.0044,0.0014,0.0024,0.0223,784.798,46.08,-180.0,0.0,0.0,2026-09-29T16:51:24.216Z,0.003,6.834,0,293.7,0,0,0,0,2026-09-29T16:51:23.579Z,642.6,2026-09-29T16:51:24.218Z,3.6,2026-09-29T16:51:24.219Z,2.7,-10,0,-1001,0,-1,1,2026-09-29T16:51:24.168Z,52.8,2026-09-29T16:51:24.171Z,50.2,2026-09-29T16:51:24.167Z,54.6,1790700683681436,1936469,2026-09-29T16:51:23.577Z,644.0,,,,400,,,1,2026-09-29T16:51:24.169Z,52.1,15.586,0.01,77,28.3,0.0,0,1198627887,2026-09-29T16:51:24.170Z,51.7,5.244,0.016,1,2026-09-29T16:51:23.576Z,644.8,,,,,,,,,,,,,,,,,,,228,2167.33,2026-09-29T16:51:24.167Z,54.1,0,0,0,0,2026-09-29T16:51:24.168Z,53.4,1508,1514,1529,1493,255,2026-09-29T16:51:24.171Z,50.6,0.03,0.06,0.0,0.0,0.03,2026-09-29T16:51:24.170Z,51.2,2026-09-29T16:51:23.577Z,644.4,2026-09-29T16:51:24.177Z,44.1,2026-09-29T16:51:24.177Z,44.6,2026-09-29T16:51:24.176Z,45.0,2026-09-29T16:51:23.578Z,643.5
