time_utc,time_gps_utc,elapsed_s,sample_n,armed,flight_mode,mission_seq,wp_dist_m,roll_deg,pitch_deg,yaw_deg,roll_rate_deg_s,pitch_rate_deg_s,yaw_rate_deg_s,lat_deg,lon_deg,alt_msl_m,alt_rel_m,vel_n_m_s,vel_e_m_s,vel_d_m_s,heading_deg,north_m,east_m,gps_lat_deg,gps_lon_deg,gps_alt_m,gps_speed_m_s,gps_course_deg,gps_sats,gps_fix_type,gps_hdop,gps_vdop,groundspeed_m_s,airspeed_m_s,climb_m_s,throttle_pct,acc_x_m_s2,acc_y_m_s2,acc_z_m_s2,gyro_x_rad_s,gyro_y_rad_s,gyro_z_rad_s,mag_x_mgauss,mag_y_mgauss,mag_z_mgauss,batt_voltage_v,batt_current_a,batt_consumed_mah,batt_remaining_pct,batt_temp_c,motor1_us,motor2_us,motor3_us,motor4_us,vib_x_m_s2,vib_y_m_s2,vib_z_m_s2,clip_0,clip_1,clip_2,ekf_flags,ekf_vel_var,ekf_pos_horiz_var,ekf_pos_vert_var,ekf_compass_var,baro_press_hpa,baro_temp_c,ap_wind_dir_deg,ap_wind_speed_m_s,ap_wind_speed_z_m_s,RTC_UTC,GPS_Synced,Battery_Current_A,Battery_Voltage_V,Battery_Power_W,PM_Power_W
2026-04-08T16:57:11.937Z,2026-04-08T16:57:11.937Z,0.0,0,,,,,0.0,0.0,0.0,0.0,0.0,0.0,,,0.0,0.0,0.0,0.0,0.0,0.0,,,,,0.0,0.0,,0,,,,0.0,,-0.0,,0.009807,0.0,0.0,0.0,0.0,0.0,0.0,0.0,0.0,,,,,22.75,,,,,,,,,,,,,,,,,,,,,2026-04-01 14:44:00,False,34.705,10.896,380.802,0.0
2026-04-08T16:57:12.005Z,2026-04-08T16:57:12.005Z,0.068,1,,,,,-2.291831,1.48969,173.205141,-0.0,-0.0,-0.114592,39.018744,-104.8934947,2160.0,-0.45,0.0,0.01,-0.01,173.18,0.0,0.0,39.018744,-104.8934948,2160.96,0.03,,29,,,,0.01,,0.01,,0.137293,0.196133,-9.816457,0.0,0.0,0.0,-224.0,-64.0,450.0,,,,,22.75,,,,,,,,,,,,,,,,,,,,,2026-04-01 14:44:00,False,34.811,10.901,380.554,0.0
2026-04-08T16:57:12.077Z,2026-04-08T16:57:12.077Z,0.14,2,,,,,-2.291831,1.48969,173.205141,0.0,0.0,0.0,39.018744,-104.8934947,2160.01,-0.448,0.0,0.0,-0.01,173.18,0.0,0.0,39.018744,-104.8934948,2160.96,0.03,,29,,,,0.0,,0.01,,0.156906,0.20594,-9.80665,0.0,0.0,0.0,-224.0,-64.0,450.0,,,,,22.75,,,,,,,,,,,,,,,,,,,,,2026-04-01 14:44:00,True,34.788,10.896,380.471,0.0
2026-04-08T16:57:12.152Z,2026-04-08T16:57:12.152Z,0.215,3,,,,,-2.291831,1.48969,173.205141,-0.0,0.0,0.057296,39.018744,-104.8934947,2160.01,-0.445,0.0,0.0,-0.01,173.18,0.0,0.0,39.0187439,-104.8934948,2160.97,0.03,,29,,,,0.0,,0.01,,0.11768,0.196133,-9.80665,0.0,0.0,0.0,-223.0,-64.0,449.0,16.434,0.01,0.0,99.0,23.0,,,,,,,,,,,,,,,,,,,,,2026-04-01 14:44:00,True,34.811,10.894,380.802,0.164
2026-04-08T16:57:12.232Z,2026-04-08T16:57:12.232Z,0.295,4,,,,,-2.291831,1.48969,173.205141,0.0,0.057296,-0.0,39.018744,-104.8934947,2160.01,-0.441,0.0,0.0,-0.01,173.18,0.0,0.0,39.0187439,-104.8934948,2160.97,0.03,,29,,,,0.0,,0.01,,0.11768,0.186326,-9.80665,0.0,0.0,0.0,-223.0,-64.0,450.0,16.434,0.01,0.0,99.0,22.75,,,,,,,,,,,,,,,,,,,,,2026-04-01 14:44:00,True,34.795,10.892,380.72,0.164
2026-04-08T16:57:12.331Z,2026-04-08T16:57:12.331Z,0.394,5,,,,,-2.291831,1.48969,173.205141,-0.0,0.0,-0.0,39.018744,-104.8934947,2160.02,-0.439,0.0,0.0,-0.01,173.18,0.0,0.0,39.0187439,-104.8934948,2160.97,0.04,,29,,,,0.0,,0.01,,0.137293,0.186326,-9.816457,0.0,0.0,0.0,-223.0,-64.0,449.0,16.434,0.01,0.0,99.0,22.75,,,,,,,,,,,,,,,,,,,,,2026-04-01 14:44:01,True,34.758,10.894,380.637,0.164
2026-04-08T16:57:12.409Z,2026-04-08T16:57:12.409Z,0.472,6,,,,,-2.291831,1.48969,173.205141,-0.0,-0.0,-0.057296,39.018744,-104.8934947,2160.02,-0.436,0.0,0.0,-0.01,173.18,0.0,0.0,39.0187439,-104.8934948,2160.97,0.04,,29,,,,0.0,,0.01,,0.137293,0.196133,-9.826263,0.0,0.0,-0.001,-224.0,-64.0,450.0,16.434,0.01,0.0,99.0,23.0,,,,,,,,,,,,,,,,,,,,,2026-04-01 14:44:01,True,34.811,10.889,380.554,0.164
2026-04-08T16:57:12.486Z,2026-04-08T16:57:12.486Z,0.549,7,,,,,-2.291831,1.48969,173.205141,0.0,0.0,-0.0,39.018744,-104.8934947,2160.02,-0.433,0.0,0.0,-0.02,173.18,0.0,0.0,39.0187439,-104.8934948,2160.97,0.04,,29,,,,0.0,,0.02,,0.137293,0.196133,-9.816457,0.0,0.0,0.0,-224.0,-64.0,450.0,16.434,0.01,0.0,99.0,23.0,,,,,,,,,,,,,,,,,,,,,2026-04-01 14:44:01,True,34.795,10.887,380.802,0.164
2026-04-08T16:57:12.560Z,2026-04-08T16:57:12.560Z,0.623,8,,,,,-2.291831,1.48969,173.205141,0.0,0.0,0.0,39.018744,-104.8934947,2160.03,-0.428,0.0,0.0,-0.02,173.18,0.0,0.0,39.018744,-104.8934948,2160.98,0.03,,29,,,,0.0,,0.02,,0.137293,0.20594,-9.816457,0.0,0.0,0.0,-223.0,-64.0,450.0,16.422,0.01,0.0,99.0,23.0,,,,,,,,,,,,,,,,,,,,,2026-04-01 14:44:01,True,34.803,10.892,380.885,0.164
2026-04-08T16:57:12.644Z,2026-04-08T16:57:12.644Z,0.707,9,,,,,-2.291831,1.48969,173.205141,0.0,0.0,0.057296,39.018744,-104.8934947,2160.03,-0.425,0.0,0.0,-0.02,173.18,0.0,0.0,39.018744,-104.8934948,2160.98,0.03,,29,,,,0.0,,0.02,,0.137293,0.196133,-9.816457,0.0,0.0,0.0,-224.0,-64.0,450.0,16.422,0.01,0.0,99.0,22.75,,,,,,,,,,,,,,,,,,,,,2026-04-01 14:44:01,True,34.765,10.885,380.637,0.164
2026-04-08T16:57:12.722Z,2026-04-08T16:57:12.722Z,0.785,10,,,,,-2.291831,1.48969,173.205141,-0.0,-0.0,0.057296,39.018744,-104.8934947,2160.03,-0.421,0.0,0.0,-0.02,173.18,0.0,0.0,39.018744,-104.8934949,2160.97,0.0,,29,,,,0.0,,0.02,,0.1471,0.20594,-9.80665,0.0,0.0,0.0,-223.0,-64.0,449.0,16.422,0.01,0.0,99.0,22.75,,,,,,,,,,,,,,,,,,,,,2026-04-01 14:44:01,True,34.795,10.892,381.134,0.164
2026-04-08T16:57:12.789Z,2026-04-08T16:57:12.789Z,0.852,11,,,,,-2.291831,1.48969,173.205141,-0.057296,-0.0,-0.057296,39.018744,-104.8934947,2160.03,-0.42,0.0,0.0,-0.02,173.18,0.0,0.0,39.018744,-104.8934949,2160.97,0.0,,29,,,,0.0,,0.02,,0.137293,0.196133,-9.796843,0.0,0.0,-0.001,-224.0,-64.0,450.0,16.43,0.01,0.0,99.0,23.0,,,,,,,,,,,,,,,,,,,,,2026-04-01 14:44:01,True,34.818,10.901,380.471,0.164
2026-04-08T16:57:12.869Z,2026-04-08T16:57:12.869Z,0.932,12,,,,,-2.291831,1.48969,173.205141,-0.0,0.0,0.057296,39.018744,-104.8934947,2160.04,-0.419,0.0,0.0,-0.02,173.18,0.0,0.0,39.018744,-104.8934949,2160.97,0.0,,29,,,,0.0,,0.02,,0.1471,0.20594,-9.80665,0.0,0.0,0.0,-224.0,-64.0,450.0,16.43,0.01,0.0,99.0,23.0,,,,,,,,,,,,,,,,,,,,,2026-04-01 14:44:01,True,34.795,10.894,380.637,0.164
2026-04-08T16:57:12.937Z,2026-04-08T16:57:12.937Z,1.0,13,,,,,-2.291831,1.48969,173.205141,0.057296,0.0,0.057296,39.018744,-104.8934947,2160.04,-0.418,0.0,0.0,-0.02,173.18,0.0,0.0,39.018744,-104.8934949,2160.96,0.0,,29,,,,0.0,,0.02,,0.137293,0.196133,-9.80665,0.0,0.0,0.0,-224.0,-64.0,449.0,16.43,0.01,0.0,99.0,23.0,,,,,,,,,,,,,,,,,,,,,2026-04-01 14:44:01,True,34.818,10.896,380.637,0.164
2026-04-08T16:57:13.007Z,2026-04-08T16:57:13.007Z,1.07,14,,,,,-2.291831,1.48969,173.205141,-0.057296,-0.0,0.0,39.018744,-104.8934947,2160.04,-0.418,0.0,0.0,-0.01,173.18,0.0,0.0,39.018744,-104.8934949,2160.96,0.0,,29,,,,0.0,,0.01,,0.137293,0.20594,-9.80665,0.0,0.0,0.0,-224.0,-64.0,450.0,16.43,0.01,0.0,99.0,22.75,,,,,,,,,,,,,,,,,,,,,2026-04-01 14:44:01,True,34.811,10.904,380.802,0.164
2026-04-08T16:57:13.076Z,2026-04-08T16:57:13.076Z,1.139,15,,,,,-2.291831,1.48969,173.205141,-0.0,-0.0,-0.057296,39.018744,-104.8934947,2160.04,-0.418,0.0,0.0,-0.01,173.18,0.0,0.0,39.018744,-104.8934949,2160.96,0.0,,29,,,,0.0,,0.01,,0.137293,0.215746,-9.796843,0.0,0.0,-0.001,-224.0,-64.0,450.0,16.43,0.01,0.0,99.0,23.0,,,,,,,,,,,,,,,,,,,,,2026-04-01 14:44:01,True,34.803,10.899,380.554,0.164
2026-04-08T16:57:13.145Z,2026-04-08T16:57:13.145Z,1.208,16,,,,,-2.291831,1.48969,173.205141,0.0,-0.0,-0.0,39.018744,-104.8934947,2160.04,-0.417,0.0,0.0,-0.01,173.18,0.0,0.0,39.018744,-104.8934949,2160.97,0.0,,29,,,,0.0,,0.01,,0.1471,0.196133,-9.816457,0.0,0.0,0.0,-223.0,-64.0,450.0,16.437,0.01,0.0,99.0,22.75,,,,,,,,,,,,,,,,,,,,,2026-04-01 14:44:01,True,34.811,10.899,380.554,0.164
2026-04-08T16:57:13.214Z,2026-04-08T16:57:13.214Z,1.277,17,,,,,-2.291831,1.48969,173.205141,-0.0,-0.0,0.057296,39.018744,-104.8934947,2160.04,-0.415,0.0,0.0,-0.01,173.18,0.0,0.0,39.018744,-104.8934949,2160.97,0.0,,29,,,,0.0,,0.01,,0.137293,0.186326,-9.816457,0.0,0.0,0.0,-224.0,-64.0,450.0,16.437,0.01,0.0,99.0,22.75,,,,,,,,,,,,,,,,,,,,,2026-04-01 14:44:01,True,34.826,10.904,380.471,0.164
2026-04-08T16:57:13.283Z,2026-04-08T16:57:13.283Z,1.346,18,,,,,-2.291831,1.48969,173.205141,-0.057296,0.0,0.0,39.018744,-104.8934947,2160.04,-0.413,0.0,0.0,-0.01,173.18,0.0,0.0,39.018744,-104.8934949,2160.97,0.0,,29,,,,0.0,,0.01,,0.137293,0.196133,-9.80665,0.0,0.0,0.0,-224.0,-64.0,450.0,16.437,0.01,0.0,99.0,22.75,,,,,,,,,,,,,,,,,,,,,2026-04-01 14:44:02,True,34.818,10.899,380.554,0.164
2026-04-08T16:57:13.355Z,2026-04-08T16:57:13.355Z,1.418,19,,,,,-2.291831,1.48969,173.205141,-0.0,0.0,-0.0,39.018744,-104.8934947,2160.04,-0.412,0.0,0.0,-0.01,173.18,0.0,0.0,39.018744,-104.8934949,2160.97,0.0,,29,,,,0.0,,0.01,,0.1471,0.20594,-9.80665,0.0,0.0,0.0,-223.0,-64.0,450.0,16.435,0.01,0.0,99.0,22.75,,,,,,,,,,,,,,,,,,,,,2026-04-01 14:44:02,True,34.811,10.896,380.637,0.164
2026-04-08T16:57:13.424Z,2026-04-08T16:57:13.424Z,1.487,20,,,,,-2.291831,1.48969,173.205141,0.0,0.0,0.057296,39.018744,-104.8934947,2160.04,-0.412,0.0,0.0,-0.01,173.18,0.0,0.0,39.018744,-104.8934949,2160.97,0.0,,29,,,,0.0,,0.01,,0.137293,0.20594,-9.816457,0.0,0.0,0.0,-224.0,-64.0,450.0,16.435,0.01,0.0,99.0,23.0,,,,,,,,,,,,,,,,,,,,,2026-04-01 14:44:02,True,34.795,10.894,380.306,0.164
2026-04-08T16:57:13.497Z,2026-04-08T16:57:13.497Z,1.56,21,,,,,-2.291831,1.48969,173.205141,0.0,0.057296,0.0,39.018744,-104.8934947,2160.04,-0.412,0.0,0.0,-0.01,173.18,0.0,0.0,39.018744,-104.893495,2160.96,0.02,,29,,,,0.0,,0.01,,0.137293,0.196133,-9.816457,0.0,0.0,0.0,-223.0,-64.0,450.0,16.435,0.01,0.0,99.0,23.0,,,,,,,,,,,,,,,,,,,,,2026-04-01 14:44:02,True,34.788,10.892,380.72,0.164
2026-04-08T16:57:13.565Z,2026-04-08T16:57:13.565Z,1.628,22,,,,,-2.291831,1.48969,173.205141,0.0,-0.0,0.0,39.018744,-104.8934947,2160.04,-0.413,0.0,0.0,-0.01,173.18,0.0,0.0,39.018744,-104.893495,2160.96,0.02,,29,,,,0.0,,0.01,,0.137293,0.196133,-9.826263,0.0,0.0,0.0,-223.0,-64.0,450.0,16.422,0.0,0.0,99.0,23.0,,,,,,,,,,,,,,,,,,,,,2026-04-01 14:44:02,True,34.818,10.894,380.637,0.0
2026-04-08T16:57:13.643Z,2026-04-08T16:57:13.643Z,1.706,23,,,,,-2.291831,1.48969,173.205141,0.0,0.0,0.0,39.018744,-104.8934947,2160.04,-0.413,0.0,0.0,-0.01,173.18,0.0,0.0,39.018744,-104.893495,2160.96,0.02,,29,,,,0.0,,0.01,,0.137293,0.20594,-9.816457,0.0,0.0,0.0,-224.0,-64.0,450.0,16.422,0.0,0.0,99.0,22.75,,,,,,,,,,,,,,,,,,,,,2026-04-01 14:44:02,True,34.788,10.887,380.554,0.0
2026-04-08T16:57:13.714Z,2026-04-08T16:57:13.714Z,1.777,24,,,,,-2.291831,1.48969,173.205141,-0.0,0.0,0.057296,39.018744,-104.8934948,2160.04,-0.416,0.0,0.0,-0.01,173.18,0.0,-0.009,39.018744,-104.893495,2160.96,0.03,,29,,,,0.0,,0.01,,0.137293,0.215746,-9.80665,0.0,0.0,0.0,-224.0,-64.0,449.0,16.422,0.0,0.0,99.0,22.75,,,,,,,,,,,,,,,,,,,,,2026-04-01 14:44:02,True,34.795,10.894,380.637,0.0
2026-04-08T16:57:13.778Z,2026-04-08T16:57:13.778Z,1.841,25,,,,,-2.291831,1.48969,173.205141,-0.0,0.0,-0.0,39.018744,-104.8934948,2160.04,-0.416,0.0,0.0,-0.01,173.18,0.0,-0.009,39.018744,-104.893495,2160.96,0.03,,29,,,,0.0,,0.01,,0.137293,0.196133,-9.80665,0.0,0.0,0.0,-224.0,-64.0,449.0,16.431,0.01,0.0,99.0,23.0,,,,,,,,,,,,,,,,,,,,,2026-04-01 14:44:02,True,34.818,10.896,380.968,0.164
2026-04-08T16:57:13.851Z,2026-04-08T16:57:13.851Z,1.914,26,,,,,-2.291831,1.48969,173.205141,0.0,-0.0,-0.0,39.018744,-104.8934948,2160.04,-0.417,0.0,0.0,-0.01,173.18,0.0,-0.009,39.018744,-104.893495,2160.96,0.03,,29,,,,0.0,,0.01,,0.137293,0.215746,-9.80665,0.0,0.0,0.0,-224.0,-64.0,450.0,16.431,0.01,0.0,99.0,23.0,,,,,,,,,,,,,,,,,,,,,2026-04-01 14:44:02,True,34.833,10.899,381.134,0.164
2026-04-08T16:57:13.923Z,2026-04-08T16:57:13.923Z,1.986,27,,,,,-2.291831,1.48969,173.205141,-0.0,0.0,-0.0,39.018744,-104.8934948,2160.04,-0.414,0.0,0.0,-0.01,173.18,0.0,-0.009,39.0187439,-104.893495,2160.96,0.01,,29,,,,0.0,,0.01,,0.127486,0.20594,-9.80665,0.0,0.0,0.0,-224.0,-64.0,450.0,16.431,0.01,0.0,99.0,22.75,,,,,,,,,,,,,,,,,,,,,2026-04-01 14:44:02,True,34.795,10.899,380.637,0.164
2026-04-08T16:57:13.986Z,2026-04-08T16:57:13.986Z,2.049,28,,,,,-2.291831,1.48969,173.205141,0.0,0.0,0.0,39.018744,-104.8934948,2160.04,-0.413,0.0,0.0,-0.01,173.18,0.0,-0.009,39.0187439,-104.893495,2160.96,0.01,,29,,,,0.0,,0.01,,0.1471,0.20594,-9.80665,0.0,0.0,0.0,-224.0,-64.0,450.0,16.436,0.01,0.0,99.0,23.0,,,,,,,,,,,,,,,,,,,,,2026-04-01 14:44:02,True,34.811,10.904,380.554,0.164
2026-04-08T16:57:14.087Z,2026-04-08T16:57:14.087Z,2.15,29,,,,,-2.291831,1.48969,173.205141,-0.057296,-0.0,-0.0,39.018744,-104.8934948,2160.04,-0.413,0.0,0.0,-0.01,173.18,0.0,-0.009,39.0187439,-104.893495,2160.96,0.01,,29,,,,0.0,,0.01,,0.137293,0.20594,-9.816457,0.0,0.0,0.0,-224.0,-64.0,450.0,16.436,0.01,0.0,99.0,22.75,,,,,,,,,,,,,,,,,,,,,2026-04-01 14:44:02,True,34.78,10.889,380.471,0.164
2026-04-08T16:57:14.160Z,2026-04-08T16:57:14.160Z,2.223,30,,,,,-2.291831,1.48969,173.205141,0.0,0.0,0.057296,39.018744,-104.8934948,2160.04,-0.413,0.0,0.0,-0.01,173.19,0.0,-0.009,39.0187439,-104.893495,2160.97,0.02,,29,,,,0.0,,0.01,,0.127486,0.196133,-9.816457,0.0,0.0,0.0,-223.0,-64.0,450.0,16.439,0.01,0.0,99.0,23.0,,,,,,,,,,,,,,,,,,,,,2026-04-01 14:44:02,True,34.803,10.892,380.72,0.164
2026-04-08T16:57:14.234Z,2026-04-08T16:57:14.234Z,2.297,31,,,,,-2.291831,1.48969,173.205141,0.0,0.0,0.057296,39.018744,-104.8934948,2160.04,-0.414,0.0,0.0,-0.01,173.19,0.0,-0.009,39.0187439,-104.893495,2160.97,0.02,,29,,,,0.0,,0.01,,0.1471,0.196133,-9.816457,0.0,0.0,0.0,-223.0,-64.0,450.0,16.439,0.01,0.0,99.0,22.75,,,,,,,,,,,,,,,,,,,,,2026-04-01 14:44:02,True,34.78,10.894,380.554,0.164
2026-04-08T16:57:14.307Z,2026-04-08T16:57:14.307Z,2.37,32,,,,,-2.291831,1.48969,173.205141,0.0,0.0,-0.057296,39.018744,-104.8934948,2160.04,-0.416,0.0,0.0,-0.01,173.19,0.0,-0.009,39.0187439,-104.8934951,2160.97,0.01,,29,,,,0.0,,0.01,,0.1471,0.196133,-9.816457,0.0,0.0,-0.001,-223.0,-64.0,450.0,16.439,0.01,0.0,99.0,23.0,,,,,,,,,,,,,,,,,,,,,2026-04-01 14:44:03,True,34.788,10.887,380.554,0.164
2026-04-08T16:57:14.377Z,2026-04-08T16:57:14.377Z,2.44,33,,,,,-2.291831,1.48969,173.205141,0.0,0.0,0.057296,39.018744,-104.8934948,2160.04,-0.417,0.0,0.0,-0.01,173.19,0.0,-0.009,39.0187439,-104.8934951,2160.97,0.01,,29,,,,0.0,,0.01,,0.1471,0.196133,-9.826263,0.0,0.0,0.0,-223.0,-64.0,450.0,16.432,0.01,0.0,99.0,23.0,,,,,,,,,,,,,,,,,,,,,2026-04-01 14:44:03,True,34.788,10.904,380.554,0.164
2026-04-08T16:57:14.468Z,2026-04-08T16:57:14.468Z,2.531,34,,,,,-2.291831,1.48969,173.205141,-0.0,0.0,-0.0,39.018744,-104.8934948,2160.04,-0.418,0.0,0.0,-0.01,173.18,0.0,-0.009,39.0187439,-104.8934951,2160.97,0.01,,29,,,,0.0,,0.01,,0.127486,0.20594,-9.816457,0.0,0.0,0.0,-224.0,-64.0,450.0,16.432,0.01,0.0,99.0,23.0,,,,,,,,,,,,,,,,,,,,,2026-04-01 14:44:03,True,34.773,10.894,380.885,0.164
2026-04-08T16:57:14.547Z,2026-04-08T16:57:14.547Z,2.61,35,,,,,-2.291831,1.48969,173.205141,-0.0,0.0,-0.0,39.018744,-104.8934949,2160.04,-0.419,0.0,0.0,-0.01,173.18,0.0,-0.017,39.0187439,-104.8934951,2160.96,0.04,,29,,,,0.0,,0.01,,0.137293,0.20594,-9.816457,0.0,0.0,0.0,-223.0,-64.0,450.0,16.422,0.01,0.0,99.0,23.0,,,,,,,,,,,,,,,,,,,,,2026-04-01 14:44:03,True,34.788,10.887,380.72,0.164
2026-04-08T16:57:14.625Z,2026-04-08T16:57:14.625Z,2.688,36,,,,,-2.291831,1.48969,173.205141,-0.0,0.057296,0.057296,39.018744,-104.8934949,2160.03,-0.421,0.0,0.0,-0.01,173.19,0.0,-0.017,39.0187439,-104.8934951,2160.96,0.04,,29,,,,0.0,,0.01,,0.1471,0.20594,-9.80665,0.0,0.0,0.0,-224.0,-64.0,450.0,16.422,0.01,0.0,99.0,22.75,,,,,,,,,,,,,,,,,,,,,2026-04-01 14:44:03,True,34.78,10.892,380.389,0.164
2026-04-08T16:57:14.706Z,2026-04-08T16:57:14.706Z,2.769,37,,,,,-2.291831,1.48969,173.205141,0.0,0.057296,0.0,39.018744,-104.8934949,2160.03,-0.423,0.0,0.0,-0.01,173.19,0.0,-0.017,39.0187439,-104.8934952,2160.95,0.02,,29,,,,0.0,,0.01,,0.137293,0.196133,-9.816457,0.0,0.0,0.0,-223.0,-64.0,450.0,16.422,0.01,0.0,99.0,22.75,,,,,,,,,,,,,,,,,,,,,2026-04-01 14:44:03,True,34.795,10.887,380.72,0.164
2026-04-08T16:57:14.778Z,2026-04-08T16:57:14.778Z,2.841,38,,,,,-2.291831,1.48969,173.205141,-0.0,0.0,0.0,39.018744,-104.8934949,2160.03,-0.427,0.0,0.0,-0.01,173.19,0.0,-0.017,39.0187439,-104.8934952,2160.95,0.02,,29,,,,0.0,,0.01,,0.137293,0.20594,-9.80665,0.0,0.0,0.0,-223.0,-64.0,450.0,16.434,0.01,0.0,99.0,23.0,,,,,,,,,,,,,,,,,,,,,2026-04-01 14:44:03,True,34.803,10.896,380.554,0.164
2026-04-08T16:57:14.864Z,2026-04-08T16:57:14.864Z,2.927,39,,,,,-2.291831,1.48969,173.205141,-0.0,0.0,-0.0,39.018744,-104.893495,2160.03,-0.429,0.0,0.0,0.0,173.18,0.0,-0.026,39.0187439,-104.8934952,2160.95,0.02,,29,,,,0.0,,-0.0,,0.127486,0.196133,-9.816457,0.0,0.0,0.0,-224.0,-64.0,450.0,16.434,0.01,0.0,99.0,23.0,,,,,,,,,,,,,,,,,,,,,2026-04-01 14:44:03,True,34.758,10.889,380.637,0.164
2026-04-08T16:57:14.944Z,2026-04-08T16:57:14.944Z,3.007,40,,,,,-2.291831,1.48969,173.205141,-0.0,-0.0,-0.057296,39.018744,-104.893495,2160.02,-0.434,0.0,0.0,0.0,173.18,0.0,-0.026,39.0187439,-104.8934952,2160.94,0.02,,29,,,,0.0,,-0.0,,0.137293,0.196133,-9.816457,0.0,0.0,0.0,-224.0,-64.0,450.0,16.444,0.01,0.0,99.0,23.0,,,,,,,,,,,,,,,,,,,,,2026-04-01 14:44:03,True,34.788,10.894,380.554,0.164
2026-04-08T16:57:15.018Z,2026-04-08T16:57:15.018Z,3.081,41,,,,,-2.291831,1.48969,173.205141,0.0,-0.0,0.0,39.018744,-104.893495,2160.02,-0.435,0.0,0.0,0.0,173.18,0.0,-0.026,39.0187439,-104.8934952,2160.94,0.02,,29,,,,0.0,,-0.0,,0.137293,0.196133,-9.816457,0.0,0.0,0.0,-224.0,-64.0,450.0,16.444,0.01,0.0,99.0,23.0,,,,,,,,,,,,,,,,,,,,,2026-04-01 14:44:03,True,34.803,10.896,380.306,0.164
2026-04-08T16:57:15.097Z,2026-04-08T16:57:15.097Z,3.16,42,,,,,-2.291831,1.48969,173.205141,-0.0,-0.057296,-0.0,39.018744,-104.893495,2160.02,-0.438,0.0,0.0,0.0,173.18,0.0,-0.026,39.0187439,-104.8934952,2160.94,0.02,,29,,,,0.0,,-0.0,,0.127486,0.196133,-9.816457,0.0,-0.001,0.0,-224.0,-64.0,450.0,16.444,0.01,0.0,99.0,23.0,,,,,,,,,,,,,,,,,,,,,2026-04-01 14:44:03,True,34.773,10.894,380.885,0.164
2026-04-08T16:57:15.170Z,2026-04-08T16:57:15.170Z,3.233,43,,,,,-2.291831,1.48969,173.205141,-0.057296,0.057296,-0.0,39.018744,-104.893495,2160.01,-0.441,0.0,0.0,0.0,173.18,0.0,-0.026,39.0187439,-104.8934952,2160.95,0.03,,29,,,,0.0,,-0.0,,0.137293,0.196133,-9.816457,0.0,0.0,0.0,-223.0,-64.0,450.0,16.432,0.01,0.0,99.0,22.75,,,,,,,,,,,,,,,,,,,,,2026-04-01 14:44:03,True,34.795,10.899,380.554,0.164
2026-04-08T16:57:15.247Z,2026-04-08T16:57:15.247Z,3.31,44,,,,,-2.291831,1.48969,173.205141,-0.0,-0.0,-0.0,39.018744,-104.893495,2160.01,-0.443,0.0,0.0,0.0,173.18,0.0,-0.026,39.0187439,-104.8934952,2160.95,0.03,,29,,,,0.0,,-0.0,,0.137293,0.196133,-9.816457,0.0,0.0,0.0,-224.0,-64.0,450.0,16.432,0.01,0.0,99.0,22.75,,,,,,,,,,,,,,,,,,,,,2026-04-01 14:44:04,True,34.826,10.896,380.471,0.164
2026-04-08T16:57:15.325Z,2026-04-08T16:57:15.325Z,3.388,45,,,,,-2.291831,1.48969,173.205141,-0.0,-0.0,-0.0,39.018744,-104.893495,2160.01,-0.442,0.0,0.0,0.0,173.18,0.0,-0.026,39.018744,-104.8934952,2160.96,0.01,,29,,,,0.0,,-0.0,,0.137293,0.20594,-9.816457,0.0,0.0,0.0,-223.0,-64.0,450.0,16.432,0.01,0.0,99.0,23.0,,,,,,,,,,,,,,,,,,,,,2026-04-01 14:44:04,True,34.803,10.887,380.471,0.164
2026-04-08T16:57:15.387Z,2026-04-08T16:57:15.387Z,3.45,46,,,,,-2.291831,1.48969,173.205141,-0.057296,0.0,0.057296,39.018744,-104.893495,2160.01,-0.444,0.0,0.0,0.0,173.18,0.0,-0.026,39.018744,-104.8934952,2160.96,0.01,,29,,,,0.0,,-0.0,,0.137293,0.186326,-9.816457,0.0,0.0,0.0,-224.0,-64.0,450.0,16.435,0.01,0.0,99.0,23.0,,,,,,,,,,,,,,,,,,,,,2026-04-01 14:44:04,True,34.833,10.911,380.802,0.164
2026-04-08T16:57:15.462Z,2026-04-08T16:57:15.462Z,3.525,47,,,,,-2.291831,1.48969,173.205141,-0.0,-0.0,0.057296,39.018744,-104.893495,2160.01,-0.445,0.0,0.0,0.0,173.18,0.0,-0.026,39.018744,-104.8934952,2160.96,0.01,,29,,,,0.0,,-0.0,,0.1471,0.20594,-9.80665,0.0,0.0,0.0,-224.0,-64.0,450.0,16.435,0.01,0.0,99.0,22.75,,,,,,,,,,,,,,,,,,,,,2026-04-01 14:44:04,True,34.811,10.892,380.968,0.164
2026-04-08T16:57:15.530Z,2026-04-08T16:57:15.530Z,3.593,48,,,,,-2.291831,1.48969,173.205141,-0.0,-0.0,0.0,39.018744,-104.893495,2160.01,-0.445,0.0,0.0,0.0,173.18,0.0,-0.026,39.018744,-104.8934952,2160.95,0.0,,29,,,,0.0,,-0.0,,0.137293,0.196133,-9.80665,0.0,0.0,0.0,-223.0,-64.0,450.0,16.435,0.01,0.0,99.0,23.0,,,,,,,,,,,,,,,,,,,,,2026-04-01 14:44:04,True,34.811,10.896,380.802,0.164
2026-04-08T16:57:15.601Z,2026-04-08T16:57:15.601Z,3.664,49,,,,,-2.291831,1.48969,173.205141,-0.057296,-0.0,-0.057296,39.018744,-104.893495,2160.01,-0.446,0.0,0.0,0.0,173.18,0.0,-0.026,39.018744,-104.8934952,2160.95,0.0,,29,,,,0.0,,-0.0,,0.137293,0.196133,-9.80665,0.0,0.0,-0.001,-224.0,-64.0,450.0,16.435,0.01,0.0,99.0,23.0,,,,,,,,,,,,,,,,,,,,,2026-04-01 14:44:04,True,34.818,10.899,380.637,0.164
2026-04-08T16:57:15.681Z,2026-04-08T16:57:15.681Z,3.744,50,,,,,-2.291831,1.48969,173.205141,0.0,-0.0,-0.0,39.018744,-104.893495,2160.01,-0.444,0.0,0.0,0.0,173.18,0.0,-0.026,39.018744,-104.8934952,2160.95,0.0,,29,,,,0.0,,-0.0,,0.1471,0.196133,-9.816457,0.0,0.0,0.0,-224.0,-64.0,450.0,16.435,0.01,0.0,99.0,23.0,,,,,,,,,,,,,,,,,,,,,2026-04-01 14:44:04,True,34.788,10.885,380.471,0.164
2026-04-08T16:57:15.752Z,2026-04-08T16:57:15.752Z,3.815,51,,,,,-2.291831,1.48969,173.205141,-0.0,0.057296,-0.057296,39.018744,-104.893495,2160.01,-0.441,0.0,0.0,0.0,173.18,0.0,-0.026,39.018744,-104.8934952,2160.95,0.01,,29,,,,0.0,,-0.0,,0.137293,0.196133,-9.816457,0.0,0.0,0.0,-223.0,-64.0,450.0,16.439,0.01,0.0,99.0,23.0,,,,,,,,,,,,,,,,,,,,,2026-04-01 14:44:04,True,34.811,10.892,380.471,0.164
2026-04-08T16:57:15.826Z,2026-04-08T16:57:15.826Z,3.889,52,,,,,-2.291831,1.48969,173.205141,-0.0,-0.0,-0.057296,39.018744,-104.893495,2160.02,-0.439,0.0,0.0,0.0,173.18,0.0,-0.026,39.018744,-104.8934952,2160.95,0.01,,29,,,,0.0,,-0.0,,0.127486,0.20594,-9.816457,0.0,0.0,-0.001,-224.0,-64.0,450.0,16.439,0.01,0.0,99.0,22.75,,,,,,,,,,,,,,,,,,,,,2026-04-01 14:44:04,True,34.818,10.896,380.72,0.164
2026-04-08T16:57:15.897Z,2026-04-08T16:57:15.897Z,3.96,53,,,,,-2.291831,1.48969,173.205141,0.0,-0.0,0.0,39.018744,-104.893495,2160.02,-0.434,0.0,0.0,0.0,173.18,0.0,-0.026,39.0187439,-104.8934952,2160.95,0.03,,29,,,,0.0,,-0.0,,0.137293,0.196133,-9.816457,0.0,0.0,0.0,-223.0,-64.0,450.0,16.439,0.01,0.0,99.0,23.0,,,,,,,,,,,,,,,,,,,,,2026-04-01 14:44:04,True,34.795,10.894,380.471,0.164
2026-04-08T16:57:15.968Z,2026-04-08T16:57:15.968Z,4.031,54,,,,,-2.291831,1.48969,173.205141,0.0,0.0,0.0,39.018744,-104.893495,2160.03,-0.428,0.0,0.0,0.0,173.18,0.0,-0.026,39.0187439,-104.8934952,2160.95,0.03,,29,,,,0.0,,-0.0,,0.137293,0.186326,-9.816457,0.0,0.0,0.0,-223.0,-64.0,450.0,16.435,0.01,0.0,99.0,23.0,,,,,,,,,,,,,,,,,,,,,2026-04-01 14:44:04,True,34.826,10.896,380.223,0.164
2026-04-08T16:57:16.046Z,2026-04-08T16:57:16.046Z,4.109,55,,,,,-2.291831,1.48969,173.205141,0.0,-0.0,-0.0,39.018744,-104.893495,2160.03,-0.424,0.0,0.0,0.0,173.18,0.0,-0.026,39.0187439,-104.8934952,2160.95,0.03,,29,,,,0.0,,-0.0,,0.1471,0.20594,-9.80665,0.0,0.0,0.0,-224.0,-64.0,450.0,16.435,0.01,0.0,99.0,23.0,,,,,,,,,,,,,,,,,,,,,2026-04-01 14:44:04,True,34.788,10.892,380.554,0.164
2026-04-08T16:57:16.117Z,2026-04-08T16:57:16.117Z,4.18,56,,,,,-2.291831,1.48969,173.205141,0.0,-0.057296,0.0,39.018744,-104.893495,2160.04,-0.417,0.0,0.0,0.0,173.18,0.0,-0.026,39.0187439,-104.8934951,2160.95,0.02,,29,,,,0.0,,-0.0,,0.1471,0.20594,-9.816457,0.0,0.0,0.0,-223.0,-64.0,450.0,16.435,0.01,0.0,99.0,23.0,,,,,,,,,,,,,,,,,,,,,2026-04-01 14:44:04,True,34.78,10.899,380.471,0.164
2026-04-08T16:57:16.184Z,2026-04-08T16:57:16.184Z,4.247,57,,,,,-2.291831,1.48969,173.205141,0.0,-0.057296,0.057296,39.018744,-104.893495,2160.04,-0.413,0.0,0.0,0.0,173.18,0.0,-0.026,39.0187439,-104.8934951,2160.95,0.02,,29,,,,0.0,,-0.0,,0.127486,0.20594,-9.826263,0.0,0.0,0.0,-223.0,-64.0,450.0,16.44,0.0,0.0,99.0,23.0,,,,,,,,,,,,,,,,,,,,,2026-04-01 14:44:04,True,34.788,10.899,380.389,0.0
2026-04-08T16:57:16.270Z,2026-04-08T16:57:16.270Z,4.333,58,,,,,-2.291831,1.48969,173.205141,-0.0,0.0,-0.057296,39.018744,-104.893495,2160.04,-0.411,0.0,0.0,0.0,173.18,0.0,-0.026,39.0187439,-104.8934951,2160.95,0.02,,29,,,,0.0,,-0.0,,0.1471,0.20594,-9.816457,0.0,0.0,-0.001,-224.0,-64.0,450.0,16.44,0.0,0.0,99.0,22.75,,,,,,,,,,,,,,,,,,,,,2026-04-01 14:44:05,True,34.788,10.892,380.471,0.0
2026-04-08T16:57:16.345Z,2026-04-08T16:57:16.345Z,4.408,59,,,,,-2.291831,1.48969,173.205141,-0.0,-0.0,-0.114592,39.018744,-104.893495,2160.05,-0.403,0.0,0.0,-0.01,173.18,0.0,-0.026,39.018744,-104.8934951,2160.96,0.0,,29,,,,0.0,,0.01,,0.1471,0.20594,-9.816457,0.0,0.0,-0.002,-223.0,-64.0,450.0,16.436,0.01,0.0,99.0,23.0,,,,,,,,,,,,,,,,,,,,,2026-04-01 14:44:05,True,34.795,10.885,380.72,0.164
2026-04-08T16:57:16.416Z,2026-04-08T16:57:16.416Z,4.479,60,,,,,-2.291831,1.48969,173.205141,-0.0,-0.0,-0.0,39.018744,-104.893495,2160.06,-0.398,0.0,0.0,-0.01,173.18,0.0,-0.026,39.018744,-104.8934951,2160.96,0.0,,29,,,,0.0,,0.01,,0.156906,0.196133,-9.80665,0.0,0.0,0.0,-224.0,-64.0,450.0,16.436,0.01,0.0,99.0,23.0,,,,,,,,,,,,,,,,,,,,,2026-04-01 14:44:05,True,34.803,10.894,380.637,0.164
2026-04-08T16:57:16.485Z,2026-04-08T16:57:16.485Z,4.548,61,,,,,-2.291831,1.48969,173.205141,0.0,-0.0,0.114592,39.018744,-104.893495,2160.06,-0.396,0.0,0.0,-0.01,173.18,0.0,-0.026,39.018744,-104.8934951,2160.96,0.0,,29,,,,0.0,,0.01,,0.137293,0.215746,-9.816457,0.0,0.0,0.001,-224.0,-64.0,450.0,16.436,0.01,0.0,99.0,23.0,,,,,,,,,,,,,,,,,,,,,2026-04-01 14:44:05,True,34.811,10.896,380.637,0.164
2026-04-08T16:57:16.553Z,2026-04-08T16:57:16.553Z,4.616,62,,,,,-2.291831,1.48969,173.205141,-0.057296,-0.057296,0.0,39.018744,-104.893495,2160.06,-0.392,0.0,0.0,-0.01,173.18,0.0,-0.026,39.018744,-104.8934951,2160.96,0.01,,29,,,,0.0,,0.01,,0.11768,0.186326,-9.816457,0.0,0.0,0.0,-223.0,-64.0,450.0,16.427,0.01,0.0,99.0,23.0,,,,,,,,,,,,,,,,,,,,,2026-04-01 14:44:05,True,34.803,10.901,380.637,0.164
2026-04-08T16:57:16.622Z,2026-04-08T16:57:16.622Z,4.685,63,,,,,-2.291831,1.48969,173.205141,0.0,0.0,-0.057296,39.018744,-104.893495,2160.07,-0.389,0.0,0.0,-0.01,173.18,0.0,-0.026,39.018744,-104.8934951,2160.96,0.01,,29,,,,0.0,,0.01,,0.1471,0.20594,-9.816457,0.0,0.0,-0.001,-224.0,-64.0,450.0,16.427,0.01,0.0,99.0,23.0,,,,,,,,,,,,,,,,,,,,,2026-04-01 14:44:05,True,34.803,10.896,380.554,0.164
2026-04-08T16:57:16.690Z,2026-04-08T16:57:16.690Z,4.753,64,,,,,-2.291831,1.48969,173.205141,-0.057296,-0.0,-0.057296,39.018744,-104.893495,2160.07,-0.385,0.0,0.0,-0.01,173.18,0.0,-0.026,39.018744,-104.8934951,2160.96,0.02,,29,,,,0.0,,0.01,,0.156906,0.245166,-9.80665,0.0,0.0,-0.001,-223.0,-64.0,450.0,16.427,0.01,0.0,99.0,23.0,,,,,,,,,,,,,,,,,,,,,2026-04-01 14:44:05,True,34.811,10.896,380.72,0.164
2026-04-08T16:57:16.761Z,2026-04-08T16:57:16.761Z,4.824,65,,,,,-2.291831,1.48969,173.205141,-0.057296,-0.057296,0.114592,39.018744,-104.893495,2160.07,-0.38,0.0,0.0,-0.01,173.18,0.0,-0.026,39.018744,-104.8934951,2160.96,0.02,,29,,,,0.0,,0.01,,0.156906,0.20594,-9.816457,0.0,0.0,0.001,-223.0,-64.0,450.0,16.434,0.01,0.0,99.0,23.0,,,,,,,,,,,,,,,,,,,,,2026-04-01 14:44:05,True,34.811,10.896,380.389,0.164
2026-04-08T16:57:16.832Z,2026-04-08T16:57:16.832Z,4.895,66,,,,,-2.291831,1.48969,173.205141,0.0,0.0,-0.114592,39.018744,-104.893495,2160.08,-0.378,0.0,0.0,-0.01,173.18,0.0,-0.026,39.018744,-104.8934951,2160.96,0.02,,29,,,,0.0,,0.01,,0.137293,0.196133,-9.80665,0.0,0.0,-0.002,-224.0,-64.0,450.0,16.434,0.01,0.0,99.0,22.75,,,,,,,,,,,,,,,,,,,,,2026-04-01 14:44:05,True,34.788,10.894,380.802,0.164
2026-04-08T16:57:16.900Z,2026-04-08T16:57:16.900Z,4.963,67,,,,,-2.291831,1.48969,173.205141,0.0,0.0,-0.057296,39.018744,-104.893495,2160.08,-0.376,0.0,0.0,-0.01,173.17,0.0,-0.026,39.018744,-104.8934951,2160.97,0.01,,29,,,,0.0,,0.01,,0.11768,0.186326,-9.80665,0.0,0.0,-0.001,-222.0,-65.0,450.0,16.434,0.01,0.0,99.0,22.75,,,,,,,,,,,,,,,,,,,,,2026-04-01 14:44:05,True,34.818,10.906,380.637,0.164
2026-04-08T16:57:16.966Z,2026-04-08T16:57:16.966Z,5.029,68,,,,,-2.291831,1.48969,173.205141,-0.057296,0.0,-0.114592,39.018744,-104.893495,2160.08,-0.376,0.0,0.0,-0.01,173.18,0.0,-0.026,39.018744,-104.8934951,2160.97,0.01,,29,,,,0.0,,0.01,,0.1471,0.215746,-9.816457,0.0,0.0,-0.002,-222.0,-65.0,450.0,16.431,0.01,0.0,99.0,23.0,,,,,,,,,,,,,,,,,,,,,2026-04-01 14:44:05,True,34.818,10.904,380.471,0.164
2026-04-08T16:57:17.037Z,2026-04-08T16:57:17.037Z,5.1,69,,,,,-2.291831,1.48969,173.205141,-0.0,-0.0,-0.0,39.018744,-104.893495,2160.08,-0.376,0.0,0.0,-0.01,173.18,0.0,-0.026,39.018744,-104.8934951,2160.97,0.01,,29,,,,0.0,,0.01,,0.11768,0.196133,-9.80665,0.0,0.0,0.0,-224.0,-64.0,450.0,16.431,0.01,0.0,99.0,23.0,,,,,,,,,,,,,,,,,,,,,2026-04-01 14:44:05,True,34.826,10.889,380.554,0.164
2026-04-08T16:57:17.113Z,2026-04-08T16:57:17.113Z,5.176,70,,,,,-2.291831,1.48969,173.205141,0.0,-0.0,-0.057296,39.018744,-104.893495,2160.08,-0.376,0.0,0.0,-0.01,173.18,0.0,-0.026,39.018744,-104.8934951,2160.97,0.01,,29,,,,0.0,,0.01,,0.107873,0.196133,-9.80665,0.0,0.0,0.0,-223.0,-64.0,450.0,16.431,0.01,0.0,99.0,23.0,,,,,,,,,,,,,,,,,,,,,2026-04-01 14:44:05,True,34.795,10.885,380.389,0.164
2026-04-08T16:57:17.180Z,2026-04-08T16:57:17.180Z,5.243,71,,,,,-2.291831,1.48969,173.205141,-0.0,0.0,0.0,39.018744,-104.893495,2160.08,-0.374,0.0,0.0,-0.01,173.18,0.0,-0.026,39.018744,-104.8934952,2160.96,0.0,,29,,,,0.0,,0.01,,0.11768,0.196133,-9.80665,0.0,0.0,0.0,-223.0,-64.0,450.0,16.439,0.01,0.0,99.0,23.0,,,,,,,,,,,,,,,,,,,,,2026-04-01 14:44:05,True,34.818,10.904,380.554,0.164
2026-04-08T16:57:17.256Z,2026-04-08T16:57:17.256Z,5.319,72,,,,,-2.291831,1.48969,173.205141,-0.0,0.0,-0.057296,39.018744,-104.893495,2160.08,-0.373,0.0,0.0,-0.01,173.18,0.0,-0.026,39.018744,-104.8934952,2160.96,0.0,,29,,,,0.0,,0.01,,0.127486,0.196133,-9.816457,0.0,0.0,0.0,-224.0,-64.0,450.0,16.439,0.01,0.0,99.0,22.75,,,,,,,,,,,,,,,,,,,,,2026-04-01 14:44:06,True,34.795,10.885,380.141,0.164
2026-04-08T16:57:17.335Z,2026-04-08T16:57:17.335Z,5.398,73,,,,,-2.291831,1.48969,173.205141,-0.0,-0.0,-0.057296,39.018744,-104.893495,2160.08,-0.371,0.0,0.0,-0.01,173.18,0.0,-0.026,39.018744,-104.8934952,2160.96,0.01,,29,,,,0.0,,0.01,,0.1471,0.215746,-9.816457,0.0,0.0,-0.001,-223.0,-64.0,449.0,16.439,0.01,0.0,99.0,23.0,,,,,,,,,,,,,,,,,,,,,2026-04-01 14:44:06,True,34.788,10.887,380.141,0.164
2026-04-08T16:57:17.408Z,2026-04-08T16:57:17.408Z,5.471,74,,,,,-2.291831,1.48969,173.205141,0.0,-0.0,0.171887,39.018744,-104.893495,2160.09,-0.368,0.0,0.0,-0.01,173.18,0.0,-0.026,39.018744,-104.8934952,2160.96,0.01,,29,,,,0.0,,0.01,,0.127486,0.215746,-9.816457,0.0,0.0,0.002,-224.0,-64.0,450.0,16.439,0.01,0.0,99.0,23.0,,,,,,,,,,,,,,,,,,,,,2026-04-01 14:44:06,True,34.795,10.894,380.554,0.164
2026-04-08T16:57:17.483Z,2026-04-08T16:57:17.483Z,5.546,75,,,,,-2.291831,1.48969,173.205141,0.057296,-0.0,0.057296,39.018744,-104.893495,2160.09,-0.364,0.0,0.0,-0.01,173.18,0.0,-0.026,39.018744,-104.8934952,2160.96,0.01,,29,,,,0.0,,0.01,,0.127486,0.166713,-9.816457,0.0,0.0,0.0,-224.0,-64.0,450.0,16.439,0.01,0.0,99.0,23.0,,,,,,,,,,,,,,,,,,,,,2026-04-01 14:44:06,True,34.773,10.892,380.389,0.164
2026-04-08T16:57:17.555Z,2026-04-08T16:57:17.555Z,5.618,76,,,,,-2.291831,1.48969,173.205141,-0.057296,0.0,-0.057296,39.018744,-104.893495,2160.1,-0.358,0.0,0.0,-0.01,173.18,0.0,-0.026,39.018744,-104.8934952,2160.95,0.01,,29,,,,0.0,,0.01,,0.1471,0.17652,-9.80665,0.0,0.0,-0.001,-223.0,-64.0,449.0,16.423,0.01,0.0,99.0,23.0,,,,,,,,,,,,,,,,,,,,,2026-04-01 14:44:06,True,34.773,10.894,380.72,0.164
2026-04-08T16:57:17.625Z,2026-04-08T16:57:17.625Z,5.688,77,,,,,-2.291831,1.48969,173.205141,0.0,0.0,-0.057296,39.018744,-104.893495,2160.1,-0.353,0.0,0.0,-0.01,173.18,0.0,-0.026,39.018744,-104.8934952,2160.95,0.01,,29,,,,0.0,,0.01,,0.137293,0.254973,-9.816457,0.0,0.0,0.0,-224.0,-64.0,450.0,16.423,0.01,0.0,99.0,23.0,,,,,,,,,,,,,,,,,,,,,2026-04-01 14:44:06,True,34.803,10.894,380.637,0.164
2026-04-08T16:57:17.693Z,2026-04-08T16:57:17.693Z,5.756,78,,,,,-2.291831,1.48969,173.205141,-0.057296,-0.0,-0.0,39.018744,-104.893495,2160.11,-0.349,0.0,0.0,-0.01,173.18,0.0,-0.026,39.018744,-104.8934952,2160.96,0.01,,29,,,,0.0,,0.01,,0.1471,0.20594,-9.80665,0.0,0.0,0.0,-223.0,-64.0,450.0,16.423,0.01,0.0,99.0,22.75,,,,,,,,,,,,,,,,,,,,,2026-04-01 14:44:06,True,34.833,10.892,380.471,0.164
2026-04-08T16:57:17.760Z,2026-04-08T16:57:17.760Z,5.823,79,,,,,-2.291831,1.48969,173.205141,-0.0,0.0,-0.0,39.018744,-104.893495,2160.11,-0.346,0.0,0.0,-0.01,173.18,0.0,-0.026,39.018744,-104.8934952,2160.96,0.01,,29,,,,0.0,,0.01,,0.137293,0.166713,-9.80665,0.0,0.0,0.0,-223.0,-64.0,450.0,16.433,0.01,0.0,99.0,23.0,,,,,,,,,,,,,,,,,,,,,2026-04-01 14:44:06,True,34.811,10.896,380.968,0.164
2026-04-08T16:57:17.835Z,2026-04-08T16:57:17.835Z,5.898,80,,,,,-2.291831,1.48969,173.205141,-0.0,0.0,-0.0,39.0187441,-104.893495,2160.11,-0.344,0.0,0.0,-0.01,173.18,0.011,-0.026,39.018744,-104.8934952,2160.96,0.01,,29,,,,0.0,,0.01,,0.137293,0.225553,-9.816457,0.0,0.0,0.0,-224.0,-64.0,450.0,16.433,0.01,0.0,99.0,23.0,,,,,,,,,,,,,,,,,,,,,2026-04-01 14:44:06,True,34.803,10.889,380.471,0.164
2026-04-08T16:57:17.903Z,2026-04-08T16:57:17.903Z,5.966,81,,,,,-2.291831,1.48969,173.205141,-0.057296,-0.0,0.0,39.0187441,-104.893495,2160.11,-0.341,0.0,0.0,-0.01,173.18,0.011,-0.026,39.018744,-104.8934952,2160.96,0.01,,29,,,,0.0,,0.01,,0.1471,0.225553,-9.80665,0.0,0.0,0.0,-223.0,-64.0,450.0,16.433,0.01,0.0,99.0,23.0,,,,,,,,,,,,,,,,,,,,,2026-04-01 14:44:06,True,34.795,10.899,380.306,0.164
2026-04-08T16:57:17.967Z,2026-04-08T16:57:17.967Z,6.03,82,,,,,-2.291831,1.48969,173.205141,-0.0,0.0,0.057296,39.0187441,-104.893495,2160.11,-0.341,0.0,0.0,-0.02,173.18,0.011,-0.026,39.018744,-104.8934952,2160.96,0.01,,29,,,,0.0,,0.02,,0.156906,0.215746,-9.816457,0.0,0.0,0.0,-223.0,-64.0,450.0,16.436,0.01,0.0,99.0,23.0,,,,,,,,,,,,,,,,,,,,,2026-04-01 14:44:06,True,34.803,10.901,380.554,0.164
2026-04-08T16:57:18.041Z,2026-04-08T16:57:18.041Z,6.104,83,,,,,-2.291831,1.48969,173.205141,-0.0,0.0,-0.057296,39.0187441,-104.893495,2160.11,-0.341,0.0,0.0,-0.01,173.18,0.011,-0.026,39.018744,-104.8934952,2160.96,0.01,,29,,,,0.0,,0.01,,0.137293,0.20594,-9.80665,0.0,0.0,-0.001,-224.0,-64.0,450.0,16.436,0.01,0.0,99.0,23.0,,,,,,,,,,,,,,,,,,,,,2026-04-01 14:44:06,True,34.811,10.889,380.637,0.164
2026-04-08T16:57:18.108Z,2026-04-08T16:57:18.108Z,6.171,84,,,,,-2.291831,1.48969,173.205141,-0.0,-0.0,-0.114592,39.0187441,-104.893495,2160.11,-0.341,0.0,0.0,-0.01,173.18,0.011,-0.026,39.0187441,-104.8934952,2160.97,0.03,,29,,,,0.0,,0.01,,0.11768,0.196133,-9.826263,0.0,0.0,-0.002,-223.0,-64.0,450.0,16.436,0.01,0.0,99.0,23.0,,,,,,,,,,,,,,,,,,,,,2026-04-01 14:44:06,True,34.803,10.904,380.554,0.164
2026-04-08T16:57:18.175Z,2026-04-08T16:57:18.175Z,6.238,85,,,,,-2.291831,1.48969,173.205141,-0.0,0.0,-0.057296,39.0187441,-104.893495,2160.11,-0.34,0.01,0.0,-0.01,173.18,0.011,-0.026,39.0187441,-104.8934952,2160.97,0.03,,29,,,,0.01,,0.01,,0.156906,0.215746,-9.816457,0.0,0.0,-0.001,-223.0,-64.0,450.0,16.433,0.01,0.0,99.0,23.0,,,,,,,,,,,,,,,,,,,,,2026-04-01 14:44:06,True,34.811,10.899,380.554,0.164
2026-04-08T16:57:18.252Z,2026-04-08T16:57:18.252Z,6.315,86,,,,,-2.291831,1.48969,173.205141,-0.0,-0.057296,-0.057296,39.0187441,-104.893495,2160.12,-0.339,0.01,0.0,-0.01,173.18,0.011,-0.026,39.0187441,-104.8934952,2160.97,0.03,,29,,,,0.01,,0.01,,0.127486,0.186326,-9.80665,0.0,0.0,0.0,-224.0,-64.0,450.0,16.433,0.01,0.0,99.0,23.0,,,,,,,,,,,,,,,,,,,,,2026-04-01 14:44:07,True,34.795,10.889,380.471,0.164
2026-04-08T16:57:18.325Z,2026-04-08T16:57:18.325Z,6.388,87,,,,,-2.291831,1.48969,173.205141,-0.0,0.0,0.0,39.0187441,-104.893495,2160.11,-0.341,0.01,0.0,-0.01,173.18,0.011,-0.026,39.0187441,-104.8934952,2160.97,0.02,,29,,,,0.01,,0.01,,0.127486,0.196133,-9.80665,0.0,0.0,0.0,-224.0,-64.0,450.0,16.433,0.01,0.0,99.0,23.0,,,,,,,,,,,,,,,,,,,,,2026-04-01 14:44:07,True,34.795,10.889,380.058,0.164
2026-04-08T16:57:18.394Z,2026-04-08T16:57:18.394Z,6.457,88,,,,,-2.291831,1.48969,173.205141,0.0,-0.0,-0.114592,39.0187441,-104.893495,2160.11,-0.341,0.01,0.0,-0.01,173.18,0.011,-0.026,39.0187441,-104.8934952,2160.97,0.02,,29,,,,0.01,,0.01,,0.137293,0.186326,-9.816457,0.0,0.0,-0.002,-224.0,-64.0,450.0,16.434,0.01,0.0,99.0,22.75,,,,,,,,,,,,,,,,,,,,,2026-04-01 14:44:07,True,34.795,10.894,380.72,0.164
2026-04-08T16:57:18.475Z,2026-04-08T16:57:18.475Z,6.538,89,,,,,-2.291831,1.48969,173.205141,0.0,-0.0,-0.0,39.0187441,-104.893495,2160.11,-0.341,0.01,0.0,-0.01,173.18,0.011,-0.026,39.0187441,-104.8934952,2160.97,0.02,,29,,,,0.01,,0.01,,0.137293,0.196133,-9.816457,0.0,0.0,0.0,-224.0,-64.0,450.0,16.434,0.01,0.0,99.0,23.0,,,,,,,,,,,,,,,,,,,,,2026-04-01 14:44:07,True,34.773,10.887,380.389,0.164
2026-04-08T16:57:18.549Z,2026-04-08T16:57:18.549Z,6.612,90,,,,,-2.291831,1.48969,173.205141,0.0,-0.0,0.057296,39.0187441,-104.893495,2160.12,-0.339,0.01,0.0,-0.01,173.18,0.011,-0.026,39.0187441,-104.8934951,2160.96,0.02,,29,,,,0.01,,0.01,,0.137293,0.20594,-9.816457,0.0,0.0,0.0,-223.0,-64.0,450.0,16.417,0.01,0.0,99.0,23.0,,,,,,,,,,,,,,,,,,,,,2026-04-01 14:44:07,True,34.788,10.892,380.637,0.164
2026-04-08T16:57:18.623Z,2026-04-08T16:57:18.623Z,6.686,91,,,,,-2.291831,1.48969,173.205141,-0.0,-0.0,0.0,39.0187441,-104.893495,2160.12,-0.337,0.01,0.0,-0.01,173.18,0.011,-0.026,39.0187441,-104.8934951,2160.96,0.02,,29,,,,0.01,,0.01,,0.137293,0.186326,-9.816457,0.0,0.0,0.0,-224.0,-64.0,450.0,16.417,0.01,0.0,99.0,23.0,,,,,,,,,,,,,,,,,,,,,2026-04-01 14:44:07,True,34.803,10.887,380.471,0.164
2026-04-08T16:57:18.697Z,2026-04-08T16:57:18.697Z,6.76,92,,,,,-2.291831,1.48969,173.205141,-0.0,0.0,-0.057296,39.0187441,-104.893495,2160.12,-0.335,0.0,0.0,-0.01,173.18,0.011,-0.026,39.0187441,-104.8934951,2160.97,0.01,,29,,,,0.0,,0.01,,0.137293,0.186326,-9.80665,0.0,0.0,-0.001,-223.0,-64.0,450.0,16.417,0.01,0.0,99.0,22.75,,,,,,,,,,,,,,,,,,,,,2026-04-01 14:44:07,True,34.788,10.882,380.637,0.164
2026-04-08T16:57:18.775Z,2026-04-08T16:57:18.775Z,6.838,93,,,,,-2.291831,1.48969,173.205141,0.0,0.057296,0.0,39.0187441,-104.893495,2160.12,-0.334,0.0,0.0,-0.01,173.18,0.011,-0.026,39.0187441,-104.8934951,2160.97,0.01,,29,,,,0.0,,0.01,,0.127486,0.215746,-9.80665,0.0,0.0,0.0,-223.0,-64.0,450.0,16.426,0.0,0.0,99.0,22.75,,,,,,,,,,,,,,,,,,,,,2026-04-01 14:44:07,True,34.773,10.889,380.471,0.0
2026-04-08T16:57:18.851Z,2026-04-08T16:57:18.851Z,6.914,94,,,,,-2.291831,1.48969,173.205141,-0.0,0.0,-0.0,39.0187441,-104.893495,2160.12,-0.333,0.0,0.0,-0.01,173.18,0.011,-0.026,39.0187441,-104.8934951,2160.97,0.01,,29,,,,0.0,,0.01,,0.1471,0.196133,-9.816457,0.0,0.0,0.0,-224.0,-64.0,450.0,16.426,0.0,0.0,99.0,23.0,,,,,,,,,,,,,,,,,,,,,2026-04-01 14:44:07,True,34.803,10.896,380.471,0.0
2026-04-08T16:57:18.918Z,2026-04-08T16:57:18.918Z,6.981,95,,,,,-2.291831,1.48969,173.205141,-0.0,-0.0,-0.0,39.0187441,-104.893495,2160.13,-0.328,0.0,0.0,-0.01,173.18,0.011,-0.026,39.018744,-104.8934952,2160.96,0.02,,29,,,,0.0,,0.01,,0.1471,0.196133,-9.80665,0.0,0.0,0.0,-223.0,-64.0,449.0,16.426,0.0,0.0,99.0,23.0,,,,,,,,,,,,,,,,,,,,,2026-04-01 14:44:07,True,34.811,10.904,380.471,0.0
2026-04-08T16:57:18.990Z,2026-04-08T16:57:18.990Z,7.053,96,,,,,-2.291831,1.48969,173.205141,-0.0,-0.0,0.0,39.0187441,-104.893495,2160.13,-0.326,0.0,0.0,-0.01,173.18,0.011,-0.026,39.018744,-104.8934952,2160.96,0.02,,29,,,,0.0,,0.01,,0.137293,0.20594,-9.80665,0.0,0.0,0.0,-223.0,-64.0,449.0,16.429,0.0,0.0,99.0,23.0,,,,,,,,,,,,,,,,,,,,,2026-04-01 14:44:07,True,34.803,10.894,380.389,0.0
2026-04-08T16:57:19.066Z,2026-04-08T16:57:19.066Z,7.129,97,,,,,-2.291831,1.48969,173.205141,0.0,0.0,-0.057296,39.0187441,-104.893495,2160.13,-0.325,0.0,0.0,-0.01,173.17,0.011,-0.026,39.018744,-104.8934952,2160.96,0.02,,29,,,,0.0,,0.01,,0.1471,0.196133,-9.816457,0.0,0.0,-0.001,-224.0,-64.0,450.0,16.429,0.0,0.0,99.0,23.0,,,,,,,,,,,,,,,,,,,,,2026-04-01 14:44:07,True,34.803,10.889,380.306,0.0
2026-04-08T16:57:19.135Z,2026-04-08T16:57:19.135Z,7.198,98,,,,,-2.291831,1.48969,173.205141,-0.0,0.0,-0.057296,39.0187441,-104.893495,2160.13,-0.32,0.0,0.0,-0.01,173.17,0.011,-0.026,39.018744,-104.8934952,2160.96,0.02,,29,,,,0.0,,0.01,,0.137293,0.196133,-9.80665,0.0,0.0,-0.001,-223.0,-64.0,449.0,16.429,0.0,0.0,99.0,23.0,,,,,,,,,,,,,,,,,,,,,2026-04-01 14:44:07,True,34.818,10.899,380.306,0.0
2026-04-08T16:57:19.205Z,2026-04-08T16:57:19.205Z,7.268,99,,,,,-2.291831,1.48969,173.205141,-0.0,0.0,0.0,39.0187441,-104.893495,2160.14,-0.317,0.0,0.0,-0.01,173.17,0.011,-0.026,39.018744,-104.8934952,2160.96,0.02,,29,,,,0.0,,0.01,,0.137293,0.196133,-9.816457,0.0,0.0,0.0,-224.0,-64.0,450.0,16.429,0.0,0.0,99.0,23.0,,,,,,,,,,,,,,,,,,,,,2026-04-01 14:44:07,True,34.811,10.896,380.72,0.0
2026-04-08T16:57:19.272Z,2026-04-08T16:57:19.272Z,7.335,100,,,,,-2.291831,1.48969,173.205141,0.0,0.057296,0.0,39.0187441,-104.893495,2160.14,-0.314,0.0,0.0,-0.01,173.17,0.011,-0.026,39.018744,-104.8934952,2160.96,0.02,,29,,,,0.0,,0.01,,0.137293,0.196133,-9.80665,0.0,0.0,0.0,-224.0,-64.0,450.0,16.429,0.0,0.0,99.0,23.0,,,,,,,,,,,,,,,,,,,,,2026-04-01 14:44:08,True,34.788,10.896,380.471,0.0
2026-04-08T16:57:19.343Z,2026-04-08T16:57:19.343Z,7.406,101,,,,,-2.291831,1.48969,173.205141,0.0,0.0,-0.0,39.018744,-104.893495,2160.14,-0.314,0.0,0.0,-0.01,173.17,0.0,-0.026,39.018744,-104.8934952,2160.95,0.01,,29,,,,0.0,,0.01,,0.127486,0.196133,-9.816457,0.0,0.0,0.0,-224.0,-64.0,450.0,16.429,0.0,0.0,99.0,23.0,,,,,,,,,,,,,,,,,,,,,2026-04-01 14:44:08,True,34.811,10.899,380.554,0.0
2026-04-08T16:57:19.412Z,2026-04-08T16:57:19.412Z,7.475,102,,,,,-2.291831,1.48969,173.147846,-0.0,-0.0,-0.057296,39.018744,-104.893495,2160.14,-0.315,0.0,0.0,-0.01,173.17,0.0,-0.026,39.018744,-104.8934952,2160.95,0.01,,29,,,,0.0,,0.01,,0.1471,0.196133,-9.80665,0.0,0.0,0.0,-224.0,-64.0,450.0,16.429,0.0,0.0,99.0,22.75,,,,,,,,,,,,,,,,,,,,,2026-04-01 14:44:08,True,34.818,10.899,380.554,0.0
2026-04-08T16:57:19.481Z,2026-04-08T16:57:19.481Z,7.544,103,,,,,-2.291831,1.48969,173.147846,0.0,-0.0,0.0,39.018744,-104.893495,2160.14,-0.317,0.0,0.0,-0.01,173.17,0.0,-0.026,39.018744,-104.8934952,2160.95,0.01,,29,,,,0.0,,0.01,,0.137293,0.215746,-9.816457,0.0,0.0,0.0,-224.0,-64.0,450.0,16.429,0.0,0.0,99.0,23.0,,,,,,,,,,,,,,,,,,,,,2026-04-01 14:44:08,True,34.803,10.896,380.306,0.0
2026-04-08T16:57:19.558Z,2026-04-08T16:57:19.558Z,7.621,104,,,,,-2.291831,1.48969,173.147846,-0.0,0.0,0.0,39.018744,-104.893495,2160.14,-0.318,0.0,0.0,-0.01,173.17,0.0,-0.026,39.018744,-104.8934952,2160.95,0.0,,29,,,,0.0,,0.01,,0.1471,0.186326,-9.80665,0.0,0.0,0.0,-223.0,-64.0,450.0,16.422,0.01,0.0,99.0,23.0,,,,,,,,,,,,,,,,,,,,,2026-04-01 14:44:08,True,34.78,10.894,380.637,0.164
2026-04-08T16:57:19.633Z,2026-04-08T16:57:19.633Z,7.696,105,,,,,-2.291831,1.48969,173.147846,-0.0,0.057296,0.057296,39.018744,-104.893495,2160.14,-0.317,0.0,0.0,-0.01,173.17,0.0,-0.026,39.018744,-104.8934952,2160.95,0.0,,29,,,,0.0,,0.01,,0.127486,0.215746,-9.816457,0.0,0.0,0.0,-224.0,-64.0,450.0,16.422,0.01,0.0,99.0,23.0,,,,,,,,,,,,,,,,,,,,,2026-04-01 14:44:08,True,34.795,10.887,380.389,0.164
2026-04-08T16:57:19.710Z,2026-04-08T16:57:19.710Z,7.773,106,,,,,-2.291831,1.48969,173.147846,-0.0,0.0,-0.057296,39.018744,-104.893495,2160.14,-0.317,0.0,0.0,-0.01,173.17,0.0,-0.026,39.018744,-104.8934952,2160.95,0.01,,29,,,,0.0,,0.01,,0.137293,0.215746,-9.80665,0.0,0.0,-0.001,-223.0,-64.0,450.0,16.422,0.01,0.0,99.0,23.0,,,,,,,,,,,,,,,,,,,,,2026-04-01 14:44:08,True,34.788,10.887,380.306,0.164
2026-04-08T16:57:19.781Z,2026-04-08T16:57:19.781Z,7.844,107,,,,,-2.291831,1.48969,173.147846,0.0,0.0,0.057296,39.018744,-104.893495,2160.14,-0.317,0.0,0.0,-0.01,173.17,0.0,-0.026,39.018744,-104.8934952,2160.95,0.01,,29,,,,0.0,,0.01,,0.137293,0.20594,-9.816457,0.0,0.0,0.0,-223.0,-64.0,450.0,16.43,0.01,0.0,99.0,22.75,,,,,,,,,,,,,,,,,,,,,2026-04-01 14:44:08,True,34.803,10.894,380.554,0.164
2026-04-08T16:57:19.860Z,2026-04-08T16:57:19.860Z,7.923,108,,,,,-2.291831,1.48969,173.147846,-0.0,-0.0,-0.114592,39.018744,-104.893495,2160.14,-0.317,0.0,0.0,-0.01,173.17,0.0,-0.026,39.018744,-104.8934952,2160.95,0.01,,29,,,,0.0,,0.01,,0.127486,0.215746,-9.80665,0.0,0.0,-0.002,-224.0,-64.0,450.0,16.43,0.01,0.0,99.0,23.0,,,,,,,,,,,,,,,,,,,,,2026-04-01 14:44:08,True,34.788,10.887,380.637,0.164
2026-04-08T16:57:19.933Z,2026-04-08T16:57:19.933Z,7.996,109,,,,,-2.291831,1.48969,173.147846,0.0,0.0,-0.114592,39.018744,-104.893495,2160.14,-0.315,0.0,0.0,-0.01,173.17,0.0,-0.026,39.018744,-104.8934952,2160.96,0.0,,29,,,,0.0,,0.01,,0.137293,0.20594,-9.816457,0.0,0.0,-0.001,-223.0,-64.0,449.0,16.43,0.01,0.0,99.0,23.0,,,,,,,,,,,,,,,,,,,,,2026-04-01 14:44:08,True,34.811,10.894,380.389,0.164
2026-04-08T16:57:20.007Z,2026-04-08T16:57:20.007Z,8.07,110,,,,,-2.291831,1.48969,173.147846,-0.0,0.0,0.0,39.018744,-104.893495,2160.14,-0.317,0.0,0.0,-0.01,173.17,0.0,-0.026,39.018744,-104.8934952,2160.96,0.0,,29,,,,0.0,,0.01,,0.137293,0.225553,-9.80665,0.0,0.0,0.0,-224.0,-64.0,450.0,16.43,0.01,0.0,99.0,23.0,,,,,,,,,,,,,,,,,,,,,2026-04-01 14:44:08,True,34.803,10.885,380.058,0.164
2026-04-08T16:57:20.088Z,2026-04-08T16:57:20.088Z,8.151,111,,,,,-2.291831,1.48969,173.205141,0.0,0.0,0.114592,39.018744,-104.893495,2160.14,-0.318,0.0,0.0,-0.01,173.17,0.0,-0.026,39.018744,-104.8934952,2160.96,0.0,,29,,,,0.0,,0.01,,0.1471,0.215746,-9.816457,0.0,0.0,0.001,-224.0,-64.0,450.0,16.43,0.01,0.0,99.0,23.0,,,,,,,,,,,,,,,,,,,,,2026-04-01 14:44:08,True,34.788,10.889,380.306,0.164
2026-04-08T16:57:20.160Z,2026-04-08T16:57:20.160Z,8.223,112,,,,,-2.291831,1.48969,173.205141,-0.0,-0.0,0.0,39.018744,-104.893495,2160.14,-0.318,0.0,0.0,-0.01,173.17,0.0,-0.026,39.0187439,-104.8934952,2160.96,0.02,,29,,,,0.0,,0.01,,0.1471,0.20594,-9.816457,0.0,0.0,0.0,-223.0,-64.0,449.0,16.432,0.01,0.0,99.0,22.75,,,,,,,,,,,,,,,,,,,,,2026-04-01 14:44:08,True,34.795,10.899,380.554,0.164
2026-04-08T16:57:20.235Z,2026-04-08T16:57:20.235Z,8.298,113,,,,,-2.291831,1.48969,173.147846,0.0,0.0,-0.057296,39.018744,-104.893495,2160.14,-0.318,0.0,0.0,-0.01,173.17,0.0,-0.026,39.0187439,-104.8934952,2160.96,0.02,,29,,,,0.0,,0.01,,0.127486,0.20594,-9.80665,0.0,0.0,0.0,-224.0,-64.0,450.0,16.432,0.01,0.0,99.0,22.75,,,,,,,,,,,,,,,,,,,,,2026-04-01 14:44:08,True,34.795,10.882,380.471,0.164
2026-04-08T16:57:20.307Z,2026-04-08T16:57:20.307Z,8.37,114,,,,,-2.291831,1.48969,173.147846,-0.0,-0.0,0.057296,39.018744,-104.893495,2160.14,-0.317,0.0,0.0,-0.01,173.17,0.0,-0.026,39.0187439,-104.8934952,2160.96,0.02,,29,,,,0.0,,0.01,,0.1471,0.20594,-9.80665,0.0,0.0,0.0,-223.0,-64.0,449.0,16.432,0.01,0.0,99.0,22.75,,,,,,,,,,,,,,,,,,,,,2026-04-01 14:44:09,True,34.811,10.887,380.554,0.164
2026-04-08T16:57:20.376Z,2026-04-08T16:57:20.376Z,8.439,115,,,,,-2.291831,1.48969,173.147846,0.0,0.0,-0.057296,39.018744,-104.893495,2160.14,-0.316,0.0,0.0,-0.01,173.17,0.0,-0.026,39.0187439,-104.8934952,2160.96,0.02,,29,,,,0.0,,0.01,,0.11768,0.20594,-9.816457,0.0,0.0,-0.001,-223.0,-64.0,449.0,16.434,0.01,0.0,99.0,22.75,,,,,,,,,,,,,,,,,,,,,2026-04-01 14:44:09,True,34.795,10.901,380.471,0.164
2026-04-08T16:57:20.455Z,2026-04-08T16:57:20.455Z,8.518,116,,,,,-2.291831,1.48969,173.147846,-0.0,0.0,-0.0,39.018744,-104.893495,2160.14,-0.316,0.0,0.0,-0.01,173.17,0.0,-0.026,39.0187439,-104.8934952,2160.96,0.02,,29,,,,0.0,,0.01,,0.137293,0.20594,-9.816457,0.0,0.0,0.0,-224.0,-64.0,450.0,16.434,0.01,0.0,99.0,23.0,,,,,,,,,,,,,,,,,,,,,2026-04-01 14:44:09,True,34.78,10.889,380.223,0.164
2026-04-08T16:57:20.528Z,2026-04-08T16:57:20.528Z,8.591,117,,,,,-2.291831,1.48969,173.147846,0.0,0.0,0.057296,39.018744,-104.893495,2160.14,-0.314,0.0,0.0,-0.01,173.17,0.0,-0.026,39.0187439,-104.8934952,2160.96,0.01,,29,,,,0.0,,0.01,,0.137293,0.20594,-9.816457,0.0,0.0,0.0,-223.0,-64.0,450.0,16.434,0.01,0.0,99.0,23.0,,,,,,,,,,,,,,,,,,,,,2026-04-01 14:44:09,True,34.78,10.892,380.223,0.164
2026-04-08T16:57:20.594Z,2026-04-08T16:57:20.594Z,8.657,118,,,,,-2.291831,1.48969,173.147846,0.057296,-0.0,-0.057296,39.018744,-104.893495,2160.14,-0.314,0.0,0.0,-0.01,173.17,0.0,-0.026,39.0187439,-104.8934952,2160.96,0.01,,29,,,,0.0,,0.01,,0.137293,0.196133,-9.80665,0.0,0.0,0.0,-224.0,-64.0,450.0,16.426,0.01,0.0,99.0,23.0,,,,,,,,,,,,,,,,,,,,,2026-04-01 14:44:09,True,34.788,10.892,380.306,0.164
2026-04-08T16:57:20.686Z,2026-04-08T16:57:20.686Z,8.749,119,,,,,-2.291831,1.48969,173.147846,-0.0,0.0,-0.057296,39.018744,-104.893495,2160.14,-0.314,0.0,0.0,-0.01,173.17,0.0,-0.026,39.0187439,-104.8934952,2160.96,0.01,,29,,,,0.0,,0.01,,0.137293,0.215746,-9.80665,0.0,0.0,-0.001,-224.0,-64.0,450.0,16.426,0.01,0.0,99.0,22.75,,,,,,,,,,,,,,,,,,,,,2026-04-01 14:44:09,True,34.758,10.887,380.306,0.164
2026-04-08T16:57:20.756Z,2026-04-08T16:57:20.756Z,8.819,120,,,,,-2.291831,1.48969,173.147846,0.0,0.0,0.0,39.018744,-104.893495,2160.14,-0.311,0.0,0.0,-0.01,173.17,0.0,-0.026,39.0187439,-104.8934952,2160.96,0.03,,29,,,,0.0,,0.01,,0.137293,0.186326,-9.80665,0.0,0.0,0.0,-223.0,-64.0,450.0,16.428,0.01,0.0,99.0,23.0,,,,,,,,,,,,,,,,,,,,,2026-04-01 14:44:09,True,34.811,10.899,380.306,0.164
2026-04-08T16:57:20.827Z,2026-04-08T16:57:20.827Z,8.89,121,,,,,-2.291831,1.48969,173.147846,-0.057296,0.0,-0.0,39.018744,-104.893495,2160.14,-0.31,0.0,0.0,-0.01,173.16,0.0,-0.026,39.0187439,-104.8934952,2160.96,0.03,,29,,,,0.0,,0.01,,0.1471,0.20594,-9.80665,0.0,0.0,0.0,-224.0,-64.0,450.0,16.428,0.01,0.0,99.0,22.75,,,,,,,,,,,,,,,,,,,,,2026-04-01 14:44:09,True,34.78,10.896,380.471,0.164
2026-04-08T16:57:20.900Z,2026-04-08T16:57:20.900Z,8.963,122,,,,,-2.291831,1.48969,173.147846,-0.0,-0.0,-0.0,39.018744,-104.893495,2160.15,-0.309,0.0,0.0,-0.01,173.17,0.0,-0.026,39.0187439,-104.8934952,2160.97,0.01,,29,,,,0.0,,0.01,,0.1471,0.20594,-9.826263,0.0,0.0,0.0,-222.0,-64.0,450.0,16.428,0.01,0.0,99.0,23.0,,,,,,,,,,,,,,,,,,,,,2026-04-01 14:44:09,True,34.803,10.892,380.802,0.164
2026-04-08T16:57:20.966Z,2026-04-08T16:57:20.966Z,9.029,123,,,,,-2.291831,1.48969,173.147846,-0.0,0.0,0.057296,39.018744,-104.893495,2160.15,-0.308,0.0,0.0,-0.01,173.17,0.0,-0.026,39.0187439,-104.8934952,2160.97,0.01,,29,,,,0.0,,0.01,,0.1471,0.20594,-9.816457,0.0,0.0,0.0,-222.0,-64.0,450.0,16.434,0.0,0.0,99.0,22.75,,,,,,,,,,,,,,,,,,,,,2026-04-01 14:44:09,True,34.811,10.904,380.554,0.0
2026-04-08T16:57:21.042Z,2026-04-08T16:57:21.042Z,9.105,124,,,,,-2.291831,1.48969,173.147846,0.0,0.0,-0.057296,39.018744,-104.893495,2160.15,-0.308,0.0,0.0,-0.01,173.17,0.0,-0.026,39.0187439,-104.8934952,2160.97,0.01,,29,,,,0.0,,0.01,,0.1471,0.20594,-9.816457,0.0,0.0,-0.001,-224.0,-64.0,450.0,16.434,0.0,0.0,99.0,22.75,,,,,,,,,,,,,,,,,,,,,2026-04-01 14:44:09,True,34.788,10.894,380.637,0.0
2026-04-08T16:57:21.109Z,2026-04-08T16:57:21.109Z,9.172,125,,,,,-2.291831,1.48969,173.147846,0.0,0.0,-0.0,39.018744,-104.893495,2160.15,-0.308,0.0,0.0,-0.01,173.17,0.0,-0.026,39.0187439,-104.8934952,2160.99,0.02,,29,,,,0.0,,0.01,,0.137293,0.20594,-9.80665,0.0,0.0,0.0,-223.0,-64.0,450.0,16.434,0.0,0.0,99.0,22.75,,,,,,,,,,,,,,,,,,,,,2026-04-01 14:44:09,True,34.818,10.899,380.637,0.0
2026-04-08T16:57:21.180Z,2026-04-08T16:57:21.180Z,9.243,126,,,,,-2.291831,1.48969,173.147846,-0.0,0.0,-0.057296,39.018744,-104.893495,2160.15,-0.308,0.0,0.0,-0.01,173.17,0.0,-0.026,39.0187439,-104.8934952,2160.99,0.02,,29,,,,0.0,,0.01,,0.137293,0.20594,-9.816457,0.0,0.0,-0.001,-223.0,-64.0,450.0,16.438,0.01,0.0,99.0,23.0,,,,,,,,,,,,,,,,,,,,,2026-04-01 14:44:09,True,34.795,10.892,380.72,0.164
2026-04-08T16:57:21.256Z,2026-04-08T16:57:21.256Z,9.319,127,,,,,-2.291831,1.48969,173.147846,-0.0,0.0,0.057296,39.018744,-104.893495,2160.15,-0.308,0.0,0.0,-0.01,173.17,0.0,-0.026,39.0187439,-104.8934952,2160.99,0.02,,29,,,,0.0,,0.01,,0.127486,0.196133,-9.816457,0.0,0.0,0.0,-224.0,-64.0,449.0,16.438,0.01,0.0,99.0,22.75,,,,,,,,,,,,,,,,,,,,,2026-04-01 14:44:10,True,34.795,10.894,380.306,0.164
2026-04-08T16:57:21.325Z,2026-04-08T16:57:21.325Z,9.388,128,,,,,-2.291831,1.48969,173.147846,-0.0,-0.0,0.057296,39.018744,-104.893495,2160.15,-0.307,0.0,0.0,-0.01,173.17,0.0,-0.026,39.0187439,-104.8934953,2160.98,0.02,,29,,,,0.0,,0.01,,0.11768,0.186326,-9.816457,0.0,0.0,0.0,-223.0,-64.0,450.0,16.438,0.01,0.0,99.0,22.75,,,,,,,,,,,,,,,,,,,,,2026-04-01 14:44:10,True,34.788,10.896,380.223,0.164
2026-04-08T16:57:21.391Z,2026-04-08T16:57:21.391Z,9.454,129,,,,,-2.291831,1.48969,173.147846,0.057296,-0.0,-0.057296,39.018744,-104.893495,2160.15,-0.308,0.0,0.0,-0.01,173.17,0.0,-0.026,39.0187439,-104.8934953,2160.98,0.02,,29,,,,0.0,,0.01,,0.1471,0.186326,-9.816457,0.0,0.0,0.0,-223.0,-64.0,450.0,16.434,0.01,0.0,99.0,22.75,,,,,,,,,,,,,,,,,,,,,2026-04-01 14:44:10,True,34.811,10.899,380.554,0.164
2026-04-08T16:57:21.474Z,2026-04-08T16:57:21.474Z,9.537,130,,,,,-2.291831,1.48969,173.147846,0.0,-0.0,-0.057296,39.018744,-104.893495,2160.15,-0.308,0.0,0.0,-0.01,173.17,0.0,-0.026,39.0187439,-104.8934953,2160.98,0.02,,29,,,,0.0,,0.01,,0.127486,0.186326,-9.80665,0.0,0.0,-0.001,-223.0,-64.0,450.0,16.434,0.01,0.0,99.0,23.0,,,,,,,,,,,,,,,,,,,,,2026-04-01 14:44:10,True,34.788,10.896,380.306,0.164
2026-04-08T16:57:21.547Z,2026-04-08T16:57:21.547Z,9.61,131,,,,,-2.291831,1.48969,173.147846,-0.0,0.0,0.057296,39.018744,-104.8934951,2160.15,-0.307,0.0,0.0,-0.01,173.17,0.0,-0.035,39.0187439,-104.8934953,2160.98,0.0,,29,,,,0.0,,0.01,,0.137293,0.20594,-9.816457,0.0,0.0,0.0,-223.0,-64.0,450.0,16.421,0.01,0.0,99.0,22.75,,,,,,,,,,,,,,,,,,,,,2026-04-01 14:44:10,True,34.773,10.894,380.223,0.164
2026-04-08T16:57:21.624Z,2026-04-08T16:57:21.624Z,9.687,132,,,,,-2.291831,1.48969,173.147846,-0.0,0.0,0.057296,39.018744,-104.8934951,2160.15,-0.308,0.0,0.0,-0.01,173.17,0.0,-0.035,39.0187439,-104.8934953,2160.98,0.0,,29,,,,0.0,,0.01,,0.127486,0.20594,-9.80665,0.0,0.0,0.0,-224.0,-64.0,450.0,16.421,0.01,0.0,99.0,22.75,,,,,,,,,,,,,,,,,,,,,2026-04-01 14:44:10,True,34.773,10.887,380.306,0.164
2026-04-08T16:57:21.704Z,2026-04-08T16:57:21.704Z,9.767,133,,,,,-2.291831,1.48969,173.147846,-0.0,0.057296,-0.057296,39.018744,-104.8934951,2160.14,-0.312,0.0,0.0,-0.01,173.16,0.0,-0.035,39.0187439,-104.8934953,2160.98,0.02,,29,,,,0.0,,0.01,,0.137293,0.186326,-9.816457,0.0,0.0,-0.001,-223.0,-64.0,450.0,16.421,0.01,0.0,99.0,22.75,,,,,,,,,,,,,,,,,,,,,2026-04-01 14:44:10,True,34.811,10.892,380.554,0.164
2026-04-08T16:57:21.777Z,2026-04-08T16:57:21.777Z,9.84,134,,,,,-2.291831,1.48969,173.147846,0.0,-0.0,-0.0,39.018744,-104.8934951,2160.14,-0.313,0.0,0.0,-0.01,173.16,0.0,-0.035,39.0187439,-104.8934953,2160.98,0.02,,29,,,,0.0,,0.01,,0.137293,0.186326,-9.816457,0.0,0.0,0.0,-223.0,-64.0,450.0,16.426,0.01,0.0,99.0,23.0,,,,,,,,,,,,,,,,,,,,,2026-04-01 14:44:10,True,34.795,10.892,380.223,0.164
2026-04-08T16:57:21.857Z,2026-04-08T16:57:21.857Z,9.92,135,,,,,-2.291831,1.48969,173.147846,-0.0,-0.0,-0.0,39.018744,-104.8934951,2160.14,-0.312,0.0,0.0,-0.01,173.16,0.0,-0.035,39.0187439,-104.8934953,2160.98,0.02,,29,,,,0.0,,0.01,,0.1471,0.20594,-9.816457,0.0,0.0,0.0,-224.0,-64.0,450.0,16.426,0.01,0.0,99.0,22.75,,,,,,,,,,,,,,,,,,,,,2026-04-01 14:44:10,True,34.788,10.892,380.389,0.164
2026-04-08T16:57:21.932Z,2026-04-08T16:57:21.932Z,9.995,136,,,,,-2.291831,1.48969,173.147846,-0.0,-0.0,-0.0,39.018744,-104.8934951,2160.14,-0.312,0.0,0.0,-0.01,173.16,0.0,-0.035,39.0187439,-104.8934953,2160.97,0.02,,29,,,,0.0,,0.01,,0.127486,0.215746,-9.816457,0.0,0.0,0.0,-223.0,-64.0,450.0,16.426,0.01,0.0,99.0,22.75,,,,,,,,,,,,,,,,,,,,,2026-04-01 14:44:10,True,34.78,10.889,380.389,0.164
2026-04-08T16:57:22.008Z,2026-04-08T16:57:22.008Z,10.071,137,,,,,-2.291831,1.48969,173.147846,-0.0,-0.0,0.0,39.018744,-104.8934951,2160.15,-0.309,0.0,0.0,-0.01,173.16,0.0,-0.035,39.0187439,-104.8934953,2160.97,0.02,,29,,,,0.0,,0.01,,0.156906,0.20594,-9.80665,0.0,0.0,0.0,-224.0,-64.0,450.0,16.426,0.01,0.0,99.0,22.75,,,,,,,,,,,,,,,,,,,,,2026-04-01 14:44:10,True,34.765,10.889,380.471,0.164
2026-04-08T16:57:22.085Z,2026-04-08T16:57:22.085Z,10.148,138,,,,,-2.291831,1.48969,173.147846,0.0,-0.0,0.0,39.018744,-104.8934951,2160.15,-0.308,0.0,0.0,-0.01,173.16,0.0,-0.035,39.0187439,-104.8934953,2160.97,0.02,,29,,,,0.0,,0.01,,0.137293,0.166713,-9.816457,0.0,0.0,0.0,-224.0,-64.0,450.0,16.426,0.01,0.0,99.0,23.0,,,,,,,,,,,,,,,,,,,,,2026-04-01 14:44:10,True,34.765,10.887,380.554,0.164
2026-04-08T16:57:22.158Z,2026-04-08T16:57:22.158Z,10.221,139,,,,,-2.291831,1.48969,173.147846,-0.0,-0.0,-0.057296,39.018744,-104.8934951,2160.15,-0.306,0.0,0.0,-0.01,173.16,0.0,-0.035,39.0187439,-104.8934952,2160.97,0.01,,29,,,,0.0,,0.01,,0.11768,0.196133,-9.816457,0.0,0.0,-0.001,-223.0,-64.0,450.0,16.44,0.01,0.0,99.0,22.75,,,,,,,,,,,,,,,,,,,,,2026-04-01 14:44:10,True,34.788,10.896,380.223,0.164
2026-04-08T16:57:22.233Z,2026-04-08T16:57:22.233Z,10.296,140,,,,,-2.291831,1.48969,173.147846,-0.0,-0.0,-0.057296,39.018744,-104.893495,2160.15,-0.304,0.0,0.0,-0.01,173.16,0.0,-0.026,39.0187439,-104.8934952,2160.97,0.01,,29,,,,0.0,,0.01,,0.156906,0.20594,-9.80665,0.0,0.0,-0.001,-223.0,-64.0,450.0,16.44,0.01,0.0,99.0,22.75,,,,,,,,,,,,,,,,,,,,,2026-04-01 14:44:10,True,34.78,10.894,380.471,0.164
2026-04-08T16:57:22.306Z,2026-04-08T16:57:22.306Z,10.369,141,,,,,-2.291831,1.48969,173.147846,0.0,0.0,-0.0,39.018744,-104.893495,2160.15,-0.301,0.0,0.0,-0.01,173.16,0.0,-0.026,39.0187439,-104.8934952,2160.96,0.02,,29,,,,0.0,,0.01,,0.156906,0.196133,-9.816457,0.0,0.0,0.0,-223.0,-64.0,450.0,16.44,0.01,0.0,99.0,22.75,,,,,,,,,,,,,,,,,,,,,2026-04-01 14:44:11,True,34.795,10.889,379.975,0.164
2026-04-08T16:57:22.385Z,2026-04-08T16:57:22.385Z,10.448,142,,,,,-2.291831,1.48969,173.147846,0.0,0.0,0.0,39.018744,-104.893495,2160.15,-0.301,0.0,0.0,-0.01,173.16,0.0,-0.026,39.0187439,-104.8934952,2160.96,0.02,,29,,,,0.0,,0.01,,0.1471,0.20594,-9.80665,0.0,0.0,0.0,-223.0,-64.0,450.0,16.434,0.01,0.0,99.0,23.0,,,,,,,,,,,,,,,,,,,,,2026-04-01 14:44:11,True,34.788,10.887,380.306,0.164
2026-04-08T16:57:22.467Z,2026-04-08T16:57:22.467Z,10.53,143,,,,,-2.291831,1.48969,173.147846,0.0,-0.0,-0.0,39.018744,-104.893495,2160.15,-0.301,0.0,0.0,-0.01,173.16,0.0,-0.026,39.0187439,-104.8934952,2160.96,0.02,,29,,,,0.0,,0.01,,0.137293,0.186326,-9.816457,0.0,0.0,0.0,-224.0,-64.0,450.0,16.434,0.01,0.0,99.0,22.75,,,,,,,,,,,,,,,,,,,,,2026-04-01 14:44:11,True,34.773,10.885,380.637,0.164
2026-04-08T16:57:22.544Z,2026-04-08T16:57:22.544Z,10.607,144,,,,,-2.291831,1.48969,173.147846,-0.0,-0.0,0.0,39.018744,-104.893495,2160.15,-0.301,0.0,0.0,-0.01,173.16,0.0,-0.026,39.0187439,-104.8934952,2160.95,0.0,,29,,,,0.0,,0.01,,0.127486,0.196133,-9.816457,0.0,0.0,0.0,-223.0,-64.0,450.0,16.422,0.01,0.0,99.0,22.75,,,,,,,,,,,,,,,,,,,,,2026-04-01 14:44:11,True,34.795,10.885,380.554,0.164
2026-04-08T16:57:22.616Z,2026-04-08T16:57:22.616Z,10.679,145,,,,,-2.291831,1.48969,173.147846,-0.057296,0.0,0.0,39.018744,-104.893495,2160.16,-0.299,0.0,0.0,-0.01,173.16,0.0,-0.026,39.0187439,-104.8934952,2160.95,0.0,,29,,,,0.0,,0.01,,0.137293,0.196133,-9.816457,0.0,0.0,0.0,-224.0,-64.0,450.0,16.422,0.01,0.0,99.0,22.75,,,,,,,,,,,,,,,,,,,,,2026-04-01 14:44:11,True,34.788,10.892,380.389,0.164
2026-04-08T16:57:22.687Z,2026-04-08T16:57:22.687Z,10.75,146,,,,,-2.291831,1.48969,173.147846,0.0,-0.0,0.0,39.018744,-104.893495,2160.16,-0.298,0.0,0.0,-0.01,173.16,0.0,-0.026,39.0187439,-104.8934952,2160.95,0.0,,29,,,,0.0,,0.01,,0.137293,0.215746,-9.816457,0.0,0.0,0.0,-224.0,-64.0,450.0,16.422,0.01,0.0,99.0,22.75,,,,,,,,,,,,,,,,,,,,,2026-04-01 14:44:11,True,34.818,10.896,380.141,0.164
2026-04-08T16:57:22.757Z,2026-04-08T16:57:22.757Z,10.82,147,,,,,-2.291831,1.48969,173.147846,-0.0,-0.0,0.0,39.018744,-104.893495,2160.16,-0.298,0.0,0.0,-0.01,173.16,0.0,-0.026,39.0187439,-104.8934952,2160.94,0.04,,29,,,,0.0,,0.01,,0.137293,0.196133,-9.816457,0.0,0.0,0.0,-224.0,-64.0,450.0,16.432,0.01,0.0,99.0,22.75,,,,,,,,,,,,,,,,,,,,,2026-04-01 14:44:11,True,34.78,10.889,380.223,0.164
2026-04-08T16:57:22.831Z,2026-04-08T16:57:22.831Z,10.894,148,,,,,-2.291831,1.48969,173.147846,-0.0,-0.0,-0.057296,39.018744,-104.893495,2160.16,-0.299,0.0,0.0,-0.01,173.16,0.0,-0.026,39.0187439,-104.8934952,2160.94,0.04,,29,,,,0.0,,0.01,,0.137293,0.186326,-9.816457,0.0,0.0,-0.001,-224.0,-64.0,450.0,16.432,0.01,0.0,99.0,23.0,,,,,,,,,,,,,,,,,,,,,2026-04-01 14:44:11,True,34.773,10.882,380.554,0.164
2026-04-08T16:57:22.901Z,2026-04-08T16:57:22.901Z,10.964,149,,,,,-2.291831,1.48969,173.147846,0.0,0.0,0.0,39.018744,-104.893495,2160.16,-0.298,0.0,0.0,-0.01,173.16,0.0,-0.026,39.0187439,-104.8934952,2160.94,0.03,,29,,,,0.0,,0.01,,0.11768,0.186326,-9.80665,0.0,0.0,0.0,-223.0,-64.0,450.0,16.432,0.01,0.0,99.0,23.0,,,,,,,,,,,,,,,,,,,,,2026-04-01 14:44:11,True,34.803,10.899,380.471,0.164
2026-04-08T16:57:22.972Z,2026-04-08T16:57:22.972Z,11.035,150,,,,,-2.291831,1.48969,173.147846,-0.057296,0.0,-0.0,39.018744,-104.893495,2160.16,-0.297,0.0,0.0,-0.01,173.16,0.0,-0.026,39.0187439,-104.8934952,2160.94,0.03,,29,,,,0.0,,0.01,,0.1471,0.20594,-9.816457,0.0,0.0,0.0,-223.0,-64.0,450.0,16.429,0.01,0.0,99.0,23.0,,,,,,,,,,,,,,,,,,,,,2026-04-01 14:44:11,True,34.788,10.894,380.637,0.164
2026-04-08T16:57:23.051Z,2026-04-08T16:57:23.051Z,11.114,151,,,,,-2.291831,1.48969,173.147846,-0.0,0.0,0.057296,39.018744,-104.893495,2160.16,-0.297,0.0,0.0,-0.01,173.17,0.0,-0.026,39.0187439,-104.8934952,2160.94,0.03,,29,,,,0.0,,0.01,,0.127486,0.186326,-9.816457,0.0,0.0,0.0,-224.0,-64.0,450.0,16.429,0.01,0.0,99.0,22.75,,,,,,,,,,,,,,,,,,,,,2026-04-01 14:44:11,True,34.795,10.896,380.389,0.164
2026-04-08T16:57:23.124Z,2026-04-08T16:57:23.124Z,11.187,152,,,,,-2.291831,1.48969,173.147846,-0.0,-0.0,0.114592,39.018744,-104.893495,2160.16,-0.296,0.0,0.0,-0.01,173.17,0.0,-0.026,39.0187439,-104.8934952,2160.94,0.0,,29,,,,0.0,,0.01,,0.127486,0.186326,-9.816457,0.0,0.0,0.001,-223.0,-64.0,450.0,16.429,0.01,0.0,99.0,22.75,,,,,,,,,,,,,,,,,,,,,2026-04-01 14:44:11,True,34.788,10.894,380.058,0.164
2026-04-08T16:57:23.189Z,2026-04-08T16:57:23.189Z,11.252,153,,,,,-2.291831,1.48969,173.147846,0.0,-0.0,0.0,39.018744,-104.893495,2160.16,-0.298,0.0,0.0,-0.01,173.16,0.0,-0.026,39.0187439,-104.8934952,2160.94,0.0,,29,,,,0.0,,0.01,,0.127486,0.186326,-9.816457,0.0,0.0,0.0,-224.0,-64.0,450.0,16.431,0.0,0.0,99.0,23.0,,,,,,,,,,,,,,,,,,,,,2026-04-01 14:44:11,True,34.788,10.892,379.975,0.0
2026-04-08T16:57:23.267Z,2026-04-08T16:57:23.267Z,11.33,154,,,,,-2.291831,1.48969,173.147846,-0.0,-0.0,0.057296,39.018744,-104.893495,2160.16,-0.298,0.0,0.0,-0.01,173.16,0.0,-0.026,39.0187439,-104.8934952,2160.94,0.0,,29,,,,0.0,,0.01,,0.137293,0.17652,-9.80665,0.0,0.0,0.0,-224.0,-64.0,450.0,16.431,0.0,0.0,99.0,23.0,,,,,,,,,,,,,,,,,,,,,2026-04-01 14:44:12,True,34.788,10.892,380.306,0.0
2026-04-08T16:57:23.338Z,2026-04-08T16:57:23.338Z,11.401,155,,,,,-2.291831,1.48969,173.147846,0.0,-0.0,-0.0,39.018744,-104.893495,2160.16,-0.299,0.0,0.0,0.0,173.16,0.0,-0.026,39.0187439,-104.8934952,2160.95,0.01,,29,,,,0.0,,-0.0,,0.137293,0.215746,-9.816457,0.0,0.0,0.0,-223.0,-64.0,450.0,16.431,0.0,0.0,99.0,22.75,,,,,,,,,,,,,,,,,,,,,2026-04-01 14:44:12,True,34.803,10.892,380.223,0.0
2026-04-08T16:57:23.408Z,2026-04-08T16:57:23.408Z,11.471,156,,,,,-2.291831,1.48969,173.147846,-0.0,0.0,0.057296,39.018744,-104.893495,2160.15,-0.3,0.0,0.0,0.0,173.16,0.0,-0.026,39.0187439,-104.8934952,2160.95,0.01,,29,,,,0.0,,-0.0,,0.137293,0.20594,-9.80665,0.0,0.0,0.0,-224.0,-64.0,450.0,16.431,0.0,0.0,99.0,22.75,,,,,,,,,,,,,,,,,,,,,2026-04-01 14:44:12,True,34.788,10.892,380.554,0.0
2026-04-08T16:57:23.485Z,2026-04-08T16:57:23.485Z,11.548,157,,,,,-2.291831,1.48969,173.147846,0.0,-0.0,0.0,39.018744,-104.893495,2160.16,-0.299,0.0,0.0,0.0,173.16,0.0,-0.026,39.0187439,-104.8934952,2160.95,0.01,,29,,,,0.0,,-0.0,,0.127486,0.186326,-9.80665,0.0,0.0,0.0,-224.0,-64.0,450.0,16.431,0.0,0.0,99.0,22.75,,,,,,,,,,,,,,,,,,,,,2026-04-01 14:44:12,True,34.765,10.88,380.471,0.0
2026-04-08T16:57:23.556Z,2026-04-08T16:57:23.556Z,11.619,158,,,,,-2.291831,1.48969,173.147846,-0.0,-0.0,0.0,39.018744,-104.893495,2160.16,-0.299,0.0,0.0,0.0,173.16,0.0,-0.026,39.0187439,-104.8934952,2160.95,0.03,,29,,,,0.0,,-0.0,,0.137293,0.196133,-9.80665,0.0,0.0,0.0,-223.0,-64.0,450.0,16.426,0.01,0.0,99.0,23.0,,,,,,,,,,,,,,,,,,,,,2026-04-01 14:44:12,True,34.773,10.887,380.223,0.164
2026-04-08T16:57:23.631Z,2026-04-08T16:57:23.631Z,11.694,159,,,,,-2.291831,1.48969,173.147846,0.0,-0.0,0.057296,39.018744,-104.893495,2160.16,-0.299,0.0,0.0,0.0,173.17,0.0,-0.026,39.0187439,-104.8934952,2160.95,0.03,,29,,,,0.0,,-0.0,,0.1471,0.20594,-9.80665,0.0,0.0,0.0,-224.0,-64.0,450.0,16.426,0.01,0.0,99.0,23.0,,,,,,,,,,,,,,,,,,,,,2026-04-01 14:44:12,True,34.795,10.892,380.389,0.164
2026-04-08T16:57:23.703Z,2026-04-08T16:57:23.703Z,11.766,160,,,,,-2.291831,1.48969,173.147846,-0.0,-0.0,-0.0,39.018744,-104.893495,2160.16,-0.299,0.0,0.01,0.0,173.17,0.0,-0.026,39.0187439,-104.8934952,2160.95,0.02,,29,,,,0.01,,-0.0,,0.137293,0.20594,-9.816457,0.0,0.0,0.0,-223.0,-64.0,450.0,16.426,0.01,0.0,99.0,23.0,,,,,,,,,,,,,,,,,,,,,2026-04-01 14:44:12,True,34.788,10.894,380.885,0.164
2026-04-08T16:57:23.772Z,2026-04-08T16:57:23.772Z,11.835,161,,,,,-2.291831,1.48969,173.147846,-0.0,0.0,0.057296,39.018744,-104.893495,2160.16,-0.299,0.0,0.01,0.0,173.17,0.0,-0.026,39.0187439,-104.8934952,2160.95,0.02,,29,,,,0.01,,-0.0,,0.127486,0.196133,-9.796843,0.0,0.0,0.0,-223.0,-64.0,450.0,16.428,0.01,0.0,99.0,22.75,,,,,,,,,,,,,,,,,,,,,2026-04-01 14:44:12,True,34.811,10.899,380.389,0.164
2026-04-08T16:57:23.841Z,2026-04-08T16:57:23.841Z,11.904,162,,,,,-2.291831,1.48969,173.147846,-0.057296,-0.0,-0.0,39.018744,-104.893495,2160.16,-0.299,0.0,0.0,0.0,173.16,0.0,-0.026,39.0187439,-104.8934952,2160.95,0.02,,29,,,,0.0,,-0.0,,0.1471,0.215746,-9.816457,0.0,0.0,0.0,-224.0,-64.0,450.0,16.428,0.01,0.0,99.0,22.75,,,,,,,,,,,,,,,,,,,,,2026-04-01 14:44:12,True,34.78,10.901,380.389,0.164
2026-04-08T16:57:23.907Z,2026-04-08T16:57:23.907Z,11.97,163,,,,,-2.291831,1.48969,173.147846,-0.0,-0.0,-0.057296,39.018744,-104.893495,2160.15,-0.3,0.0,0.01,0.0,173.16,0.0,-0.026,39.0187439,-104.8934952,2160.96,0.01,,29,,,,0.01,,-0.0,,0.137293,0.196133,-9.80665,0.0,0.0,0.0,-223.0,-64.0,450.0,16.428,0.01,0.0,99.0,23.0,,,,,,,,,,,,,,,,,,,,,2026-04-01 14:44:12,True,34.78,10.896,380.637,0.164
2026-04-08T16:57:23.972Z,2026-04-08T16:57:23.972Z,12.035,164,,,,,-2.291831,1.48969,173.147846,-0.057296,-0.0,-0.0,39.018744,-104.893495,2160.16,-0.3,0.0,0.01,0.0,173.17,0.0,-0.026,39.0187439,-104.8934952,2160.96,0.01,,29,,,,0.01,,-0.0,,0.137293,0.20594,-9.816457,0.0,0.0,0.0,-223.0,-64.0,450.0,16.432,0.01,0.0,99.0,23.0,,,,,,,,,,,,,,,,,,,,,2026-04-01 14:44:12,True,34.795,10.904,380.389,0.164
2026-04-08T16:57:24.050Z,2026-04-08T16:57:24.050Z,12.113,165,,,,,-2.291831,1.48969,173.147846,0.0,-0.0,-0.0,39.018744,-104.893495,2160.16,-0.299,0.0,0.01,0.0,173.17,0.0,-0.026,39.0187439,-104.8934952,2160.96,0.01,,29,,,,0.01,,-0.0,,0.137293,0.196133,-9.80665,0.0,0.0,0.0,-224.0,-64.0,450.0,16.432,0.01,0.0,99.0,23.0,,,,,,,,,,,,,,,,,,,,,2026-04-01 14:44:12,True,34.795,10.887,380.306,0.164
2026-04-08T16:57:24.117Z,2026-04-08T16:57:24.117Z,12.18,166,,,,,-2.291831,1.48969,173.147846,-0.0,-0.0,0.057296,39.018744,-104.893495,2160.16,-0.298,0.0,0.01,0.0,173.17,0.0,-0.026,39.0187439,-104.8934952,2160.95,0.03,,29,,,,0.01,,-0.0,,0.127486,0.20594,-9.816457,0.0,0.0,0.0,-223.0,-64.0,450.0,16.432,0.01,0.0,99.0,22.75,,,,,,,,,,,,,,,,,,,,,2026-04-01 14:44:12,True,34.788,10.899,380.637,0.164
2026-04-08T16:57:24.181Z,2026-04-08T16:57:24.181Z,12.244,167,,,,,-2.291831,1.48969,173.147846,-0.0,-0.0,0.057296,39.018744,-104.893495,2160.16,-0.297,0.0,0.0,0.0,173.17,0.0,-0.026,39.0187439,-104.8934952,2160.95,0.03,,29,,,,0.0,,-0.0,,0.1471,0.20594,-9.80665,0.0,0.0,0.0,-223.0,-64.0,450.0,16.43,0.01,0.0,99.0,22.75,,,,,,,,,,,,,,,,,,,,,2026-04-01 14:44:12,True,34.795,10.906,380.389,0.164
2026-04-08T16:57:24.253Z,2026-04-08T16:57:24.253Z,12.316,168,,,,,-2.291831,1.48969,173.147846,0.0,0.0,-0.057296,39.018744,-104.893495,2160.16,-0.296,0.0,0.0,0.0,173.17,0.0,-0.026,39.0187439,-104.8934952,2160.95,0.03,,29,,,,0.0,,-0.0,,0.127486,0.20594,-9.816457,0.0,0.0,-0.001,-223.0,-64.0,450.0,16.43,0.01,0.0,99.0,23.0,,,,,,,,,,,,,,,,,,,,,2026-04-01 14:44:13,True,34.803,10.892,380.306,0.164
2026-04-08T16:57:24.322Z,2026-04-08T16:57:24.322Z,12.385,169,,,,,-2.291831,1.48969,173.147846,0.0,-0.0,-0.057296,39.018744,-104.893495,2160.16,-0.294,0.0,0.0,0.0,173.17,0.0,-0.026,39.0187438,-104.8934952,2160.95,0.03,,29,,,,0.0,,-0.0,,0.107873,0.225553,-9.80665,0.0,0.0,-0.001,-223.0,-64.0,449.0,16.43,0.01,0.0,99.0,23.0,,,,,,,,,,,,,,,,,,,,,2026-04-01 14:44:13,True,34.818,10.899,380.554,0.164
2026-04-08T16:57:24.387Z,2026-04-08T16:57:24.387Z,12.45,170,,,,,-2.291831,1.48969,173.147846,0.0,-0.0,-0.0,39.018744,-104.893495,2160.16,-0.296,0.0,0.0,0.0,173.17,0.0,-0.026,39.0187438,-104.8934952,2160.95,0.03,,29,,,,0.0,,-0.0,,0.1471,0.17652,-9.826263,0.0,0.0,0.0,-223.0,-64.0,450.0,16.437,0.01,0.0,99.0,23.0,,,,,,,,,,,,,,,,,,,,,2026-04-01 14:44:13,True,34.811,10.901,380.389,0.164
2026-04-08T16:57:24.468Z,2026-04-08T16:57:24.468Z,12.531,171,,,,,-2.291831,1.48969,173.147846,0.0,-0.0,0.057296,39.018744,-104.893495,2160.16,-0.296,0.0,0.0,0.0,173.17,0.0,-0.026,39.0187438,-104.8934952,2160.95,0.03,,29,,,,0.0,,-0.0,,0.127486,0.20594,-9.816457,0.0,0.0,0.0,-223.0,-64.0,450.0,16.437,0.01,0.0,99.0,22.75,,,,,,,,,,,,,,,,,,,,,2026-04-01 14:44:13,True,34.773,10.889,380.637,0.164
2026-04-08T16:57:24.546Z,2026-04-08T16:57:24.546Z,12.609,172,,,,,-2.291831,1.48969,173.147846,-0.0,-0.0,0.057296,39.018744,-104.893495,2160.16,-0.296,0.0,0.0,0.0,173.17,0.0,-0.026,39.0187439,-104.8934953,2160.94,0.03,,29,,,,0.0,,-0.0,,0.127486,0.225553,-9.80665,0.0,0.0,0.0,-223.0,-64.0,450.0,16.426,0.01,0.0,99.0,23.0,,,,,,,,,,,,,,,,,,,,,2026-04-01 14:44:13,True,34.78,10.887,380.223,0.164
2026-04-08T16:57:24.618Z,2026-04-08T16:57:24.618Z,12.681,173,,,,,-2.291831,1.48969,173.147846,0.0,-0.057296,-0.0,39.018744,-104.893495,2160.16,-0.295,0.0,0.0,0.0,173.17,0.0,-0.026,39.0187439,-104.8934953,2160.94,0.03,,29,,,,0.0,,-0.0,,0.137293,0.196133,-9.80665,0.0,0.0,0.0,-224.0,-64.0,450.0,16.426,0.01,0.0,99.0,23.0,,,,,,,,,,,,,,,,,,,,,2026-04-01 14:44:13,True,34.795,10.887,380.223,0.164
2026-04-08T16:57:24.688Z,2026-04-08T16:57:24.688Z,12.751,174,,,,,-2.291831,1.48969,173.147846,-0.0,-0.0,0.0,39.018744,-104.893495,2160.16,-0.292,0.0,0.0,0.0,173.17,0.0,-0.026,39.0187439,-104.8934953,2160.94,0.03,,29,,,,0.0,,-0.0,,0.1471,0.166713,-9.816457,0.0,0.0,0.0,-224.0,-64.0,450.0,16.426,0.01,0.0,99.0,23.0,,,,,,,,,,,,,,,,,,,,,2026-04-01 14:44:13,True,34.811,10.885,380.058,0.164
2026-04-08T16:57:24.758Z,2026-04-08T16:57:24.758Z,12.821,175,,,,,-2.291831,1.48969,173.147846,0.0,0.0,-0.0,39.018744,-104.893495,2160.17,-0.289,0.0,0.0,0.0,173.17,0.0,-0.026,39.0187439,-104.8934952,2160.94,0.02,,29,,,,0.0,,-0.0,,0.127486,0.20594,-9.816457,0.0,0.0,0.0,-223.0,-64.0,450.0,16.427,0.01,0.0,99.0,22.75,,,,,,,,,,,,,,,,,,,,,2026-04-01 14:44:13,True,34.811,10.896,380.306,0.164
2026-04-08T16:57:24.834Z,2026-04-08T16:57:24.834Z,12.897,176,,,,,-2.291831,1.48969,173.147846,0.0,0.0,0.0,39.018744,-104.893495,2160.17,-0.286,0.0,0.0,0.0,173.17,0.0,-0.026,39.0187439,-104.8934952,2160.94,0.02,,29,,,,0.0,,-0.0,,0.166713,0.215746,-9.816457,0.0,0.0,0.0,-224.0,-64.0,450.0,16.427,0.01,0.0,99.0,22.75,,,,,,,,,,,,,,,,,,,,,2026-04-01 14:44:13,True,34.803,10.882,380.637,0.164
2026-04-08T16:57:24.905Z,2026-04-08T16:57:24.905Z,12.968,177,,,,,-2.291831,1.48969,173.147846,-0.0,-0.0,-0.0,39.018744,-104.893495,2160.17,-0.283,0.0,0.0,0.0,173.17,0.0,-0.026,39.0187439,-104.8934952,2160.94,0.02,,29,,,,0.0,,-0.0,,0.166713,0.215746,-9.816457,0.0,0.0,0.0,-223.0,-64.0,449.0,16.427,0.01,0.0,99.0,22.75,,,,,,,,,,,,,,,,,,,,,2026-04-01 14:44:13,True,34.773,10.892,379.892,0.164
2026-04-08T16:57:24.972Z,2026-04-08T16:57:24.972Z,13.035,178,,,,,-2.291831,1.48969,173.147846,-0.0,-0.0,0.0,39.018744,-104.893495,2160.17,-0.283,0.0,0.0,0.0,173.17,0.0,-0.026,39.0187438,-104.8934952,2160.93,0.01,,29,,,,0.0,,-0.0,,0.127486,0.186326,-9.80665,0.0,0.0,0.0,-223.0,-64.0,449.0,16.43,0.01,0.0,99.0,23.0,,,,,,,,,,,,,,,,,,,,,2026-04-01 14:44:13,True,34.788,10.901,380.306,0.164
2026-04-08T16:57:25.054Z,2026-04-08T16:57:25.054Z,13.117,179,,,,,-2.291831,1.48969,173.147846,0.0,-0.0,-0.0,39.018744,-104.893495,2160.17,-0.283,0.0,0.0,0.0,173.17,0.0,-0.026,39.0187438,-104.8934952,2160.93,0.01,,29,,,,0.0,,-0.0,,0.166713,0.20594,-9.796843,0.0,0.0,0.0,-224.0,-64.0,450.0,16.43,0.01,0.0,99.0,23.0,,,,,,,,,,,,,,,,,,,,,2026-04-01 14:44:13,True,34.773,10.894,380.389,0.164
2026-04-08T16:57:25.133Z,2026-04-08T16:57:25.133Z,13.196,180,,,,,-2.291831,1.48969,173.147846,0.0,0.0,-0.057296,39.018744,-104.893495,2160.17,-0.283,0.0,0.0,0.0,173.17,0.0,-0.026,39.0187438,-104.8934952,2160.93,0.01,,29,,,,0.0,,-0.0,,0.137293,0.196133,-9.816457,0.0,0.0,-0.001,-223.0,-64.0,450.0,16.43,0.01,0.0,99.0,23.0,,,,,,,,,,,,,,,,,,,,,2026-04-01 14:44:13,True,34.773,10.88,380.802,0.164
2026-04-08T16:57:25.201Z,2026-04-08T16:57:25.201Z,13.264,181,,,,,-2.291831,1.48969,173.147846,-0.057296,-0.057296,-0.0,39.018744,-104.893495,2160.17,-0.281,0.0,0.0,0.0,173.17,0.0,-0.026,39.0187438,-104.8934952,2160.93,0.01,,29,,,,0.0,,-0.0,,0.156906,0.196133,-9.816457,0.0,0.0,0.0,-224.0,-64.0,450.0,16.43,0.01,0.0,99.0,23.0,,,,,,,,,,,,,,,,,,,,,2026-04-01 14:44:13,True,34.811,10.899,380.885,0.164
2026-04-08T16:57:25.266Z,2026-04-08T16:57:25.266Z,13.329,182,,,,,-2.291831,1.48969,173.147846,-0.057296,0.0,0.057296,39.018744,-104.893495,2160.18,-0.279,0.0,0.0,0.0,173.17,0.0,-0.026,39.0187438,-104.8934952,2160.93,0.01,,29,,,,0.0,,-0.0,,0.1471,0.20594,-9.80665,0.0,0.0,0.0,-224.0,-64.0,450.0,16.43,0.01,0.0,99.0,23.0,,,,,,,,,,,,,,,,,,,,,2026-04-01 14:44:14,True,34.811,10.899,380.141,0.164
2026-04-08T16:57:25.335Z,2026-04-08T16:57:25.335Z,13.398,183,,,,,-2.291831,1.48969,173.147846,0.0,0.057296,0.0,39.018744,-104.893495,2160.18,-0.277,0.0,0.0,0.0,173.17,0.0,-0.026,39.0187439,-104.8934952,2160.94,0.03,,29,,,,0.0,,-0.0,,0.127486,0.186326,-9.816457,0.0,0.0,0.0,-223.0,-64.0,450.0,16.43,0.01,0.0,99.0,23.0,,,,,,,,,,,,,,,,,,,,,2026-04-01 14:44:14,True,34.795,10.892,380.554,0.164
2026-04-08T16:57:25.412Z,2026-04-08T16:57:25.412Z,13.475,184,,,,,-2.291831,1.48969,173.147846,-0.0,-0.0,-0.0,39.018744,-104.893495,2160.18,-0.276,0.0,0.0,0.0,173.17,0.0,-0.026,39.0187439,-104.8934952,2160.94,0.03,,29,,,,0.0,,-0.0,,0.137293,0.186326,-9.816457,0.0,0.0,0.0,-224.0,-64.0,450.0,16.43,0.01,0.0,99.0,23.0,,,,,,,,,,,,,,,,,,,,,2026-04-01 14:44:14,True,34.78,10.885,380.471,0.164
2026-04-08T16:57:25.491Z,2026-04-08T16:57:25.491Z,13.554,185,,,,,-2.291831,1.48969,173.147846,-0.0,-0.0,0.0,39.018744,-104.893495,2160.18,-0.274,0.0,0.0,0.0,173.17,0.0,-0.026,39.0187439,-104.8934952,2160.94,0.03,,29,,,,0.0,,-0.0,,0.137293,0.196133,-9.80665,0.0,0.0,0.0,-224.0,-64.0,450.0,16.43,0.01,0.0,99.0,23.0,,,,,,,,,,,,,,,,,,,,,2026-04-01 14:44:14,True,34.773,10.889,380.141,0.164
2026-04-08T16:57:25.563Z,2026-04-08T16:57:25.563Z,13.626,186,,,,,-2.291831,1.48969,173.147846,-0.057296,0.0,-0.057296,39.018744,-104.893495,2160.18,-0.27,0.0,0.0,0.0,173.17,0.0,-0.026,39.0187439,-104.8934952,2160.95,0.0,,29,,,,0.0,,-0.0,,0.137293,0.23536,-9.816457,0.0,0.0,0.0,-223.0,-64.0,450.0,16.427,0.01,0.0,99.0,23.0,,,,,,,,,,,,,,,,,,,,,2026-04-01 14:44:14,True,34.803,10.889,380.554,0.164
2026-04-08T16:57:25.638Z,2026-04-08T16:57:25.638Z,13.701,187,,,,,-2.291831,1.48969,173.147846,0.0,0.0,-0.057296,39.018744,-104.893495,2160.19,-0.267,0.0,0.0,0.0,173.17,0.0,-0.026,39.0187439,-104.8934952,2160.95,0.0,,29,,,,0.0,,-0.0,,0.1471,0.17652,-9.80665,0.0,0.0,-0.001,-224.0,-64.0,450.0,16.427,0.01,0.0,99.0,23.0,,,,,,,,,,,,,,,,,,,,,2026-04-01 14:44:14,True,34.78,10.885,380.306,0.164
2026-04-08T16:57:25.710Z,2026-04-08T16:57:25.710Z,13.773,188,,,,,-2.291831,1.48969,173.147846,0.0,-0.0,0.0,39.018744,-104.893495,2160.19,-0.261,0.0,0.0,-0.01,173.17,0.0,-0.026,39.0187439,-104.8934952,2160.95,0.01,,29,,,,0.0,,0.01,,0.137293,0.186326,-9.80665,0.0,0.0,0.0,-223.0,-64.0,450.0,16.427,0.01,0.0,99.0,23.0,,,,,,,,,,,,,,,,,,,,,2026-04-01 14:44:14,True,34.795,10.882,380.389,0.164
2026-04-08T16:57:25.781Z,2026-04-08T16:57:25.781Z,13.844,189,,,,,-2.291831,1.48969,173.147846,-0.0,-0.0,-0.0,39.018744,-104.893495,2160.2,-0.257,0.0,0.0,-0.01,173.17,0.0,-0.026,39.0187439,-104.8934952,2160.95,0.01,,29,,,,0.0,,0.01,,0.127486,0.20594,-9.80665,0.0,0.0,0.0,-223.0,-64.0,450.0,16.437,0.01,0.0,99.0,23.0,,,,,,,,,,,,,,,,,,,,,2026-04-01 14:44:14,True,34.803,10.894,380.554,0.164
2026-04-08T16:57:25.867Z,2026-04-08T16:57:25.867Z,13.93,190,,,,,-2.291831,1.48969,173.205141,0.0,-0.0,0.057296,39.018744,-104.893495,2160.2,-0.255,0.0,0.0,-0.01,173.17,0.0,-0.026,39.0187439,-104.8934952,2160.95,0.01,,29,,,,0.0,,0.01,,0.1471,0.186326,-9.80665,0.0,0.0,0.0,-224.0,-64.0,450.0,16.437,0.01,0.0,99.0,23.0,,,,,,,,,,,,,,,,,,,,,2026-04-01 14:44:14,True,34.758,10.892,380.471,0.164
2026-04-08T16:57:25.945Z,2026-04-08T16:57:25.945Z,14.008,191,,,,,-2.291831,1.48969,173.147846,-0.0,-0.057296,0.057296,39.018744,-104.893495,2160.2,-0.251,0.0,0.0,-0.01,173.17,0.0,-0.026,39.0187439,-104.8934952,2160.96,0.01,,29,,,,0.0,,0.01,,0.1471,0.196133,-9.826263,0.0,-0.001,0.0,-223.0,-64.0,449.0,16.432,0.01,0.0,99.0,23.0,,,,,,,,,,,,,,,,,,,,,2026-04-01 14:44:14,True,34.75,10.88,380.223,0.164
2026-04-08T16:57:26.023Z,2026-04-08T16:57:26.023Z,14.086,192,,,,,-2.291831,1.48969,173.147846,-0.0,-0.0,-0.0,39.018744,-104.893495,2160.2,-0.25,0.0,0.0,-0.01,173.17,0.0,-0.026,39.0187439,-104.8934952,2160.96,0.01,,29,,,,0.0,,0.01,,0.1471,0.20594,-9.816457,0.0,0.0,0.0,-224.0,-64.0,450.0,16.432,0.01,0.0,99.0,23.0,,,,,,,,,,,,,,,,,,,,,2026-04-01 14:44:14,True,34.773,10.887,380.389,0.164
2026-04-08T16:57:26.109Z,2026-04-08T16:57:26.109Z,14.172,193,,,,,-2.291831,1.48969,173.205141,0.0,0.0,0.057296,39.018744,-104.893495,2160.2,-0.251,0.0,0.0,-0.01,173.17,0.0,-0.026,39.0187439,-104.8934952,2160.96,0.01,,29,,,,0.0,,0.01,,0.137293,0.186326,-9.80665,0.0,0.0,0.0,-223.0,-64.0,450.0,16.432,0.01,0.0,99.0,23.0,,,,,,,,,,,,,,,,,,,,,2026-04-01 14:44:14,True,34.758,10.887,380.223,0.164
2026-04-08T16:57:26.182Z,2026-04-08T16:57:26.182Z,14.245,194,,,,,-2.291831,1.48969,173.205141,0.0,-0.0,-0.057296,39.018744,-104.893495,2160.2,-0.252,0.0,0.0,-0.01,173.17,0.0,-0.026,39.0187438,-104.8934952,2160.95,0.01,,29,,,,0.0,,0.01,,0.127486,0.196133,-9.816457,0.0,0.0,-0.001,-223.0,-64.0,450.0,16.437,0.01,0.0,99.0,23.0,,,,,,,,,,,,,,,,,,,,,2026-04-01 14:44:14,True,34.78,10.892,380.554,0.164
2026-04-08T16:57:26.269Z,2026-04-08T16:57:26.269Z,14.332,195,,,,,-2.291831,1.48969,173.205141,-0.0,0.057296,0.0,39.018744,-104.893495,2160.2,-0.253,0.0,0.0,-0.01,173.17,0.0,-0.026,39.0187438,-104.8934952,2160.95,0.01,,29,,,,0.0,,0.01,,0.1471,0.20594,-9.816457,0.0,0.0,0.0,-223.0,-64.0,450.0,16.437,0.01,0.0,99.0,23.0,,,,,,,,,,,,,,,,,,,,,2026-04-01 14:44:15,True,34.758,10.887,380.389,0.164
2026-04-08T16:57:26.347Z,2026-04-08T16:57:26.347Z,14.41,196,,,,,-2.291831,1.48969,173.147846,-0.0,0.0,-0.0,39.018744,-104.893495,2160.2,-0.254,0.0,0.0,-0.01,173.17,0.0,-0.026,39.0187438,-104.8934952,2160.95,0.01,,29,,,,0.0,,0.01,,0.127486,0.215746,-9.816457,0.0,0.0,0.0,-223.0,-65.0,450.0,16.435,0.0,0.0,99.0,23.0,,,,,,,,,,,,,,,,,,,,,2026-04-01 14:44:15,True,34.78,10.889,379.975,0.0
2026-04-08T16:57:26.425Z,2026-04-08T16:57:26.425Z,14.488,197,,,,,-2.291831,1.48969,173.147846,0.0,-0.0,-0.0,39.018744,-104.893495,2160.2,-0.254,0.0,0.0,-0.01,173.17,0.0,-0.026,39.0187438,-104.8934952,2160.95,0.01,,29,,,,0.0,,0.01,,0.1471,0.196133,-9.816457,0.0,0.0,0.0,-224.0,-64.0,450.0,16.435,0.0,0.0,99.0,23.0,,,,,,,,,,,,,,,,,,,,,2026-04-01 14:44:15,True,34.78,10.88,380.223,0.0
2026-04-08T16:57:26.504Z,2026-04-08T16:57:26.504Z,14.567,198,,,,,-2.291831,1.432394,173.147846,0.057296,0.0,0.0,39.018744,-104.893495,2160.2,-0.256,0.0,0.0,-0.01,173.17,0.0,-0.026,39.0187438,-104.8934952,2160.94,0.0,,29,,,,0.0,,0.01,,0.1471,0.186326,-9.80665,0.0,0.0,0.0,-223.0,-64.0,450.0,16.435,0.0,0.0,99.0,22.75,,,,,,,,,,,,,,,,,,,,,2026-04-01 14:44:15,True,34.795,10.887,379.975,0.0
2026-04-08T16:57:26.576Z,2026-04-08T16:57:26.576Z,14.639,199,,,,,-2.291831,1.432394,173.147846,0.0,-0.0,-0.0,39.0187439,-104.893495,2160.2,-0.258,0.0,0.0,0.0,173.17,-0.011,-0.026,39.0187438,-104.8934952,2160.94,0.0,,29,,,,0.0,,-0.0,,0.137293,0.20594,-9.816457,0.0,0.0,0.0,-223.0,-64.0,450.0,16.429,0.01,0.0,99.0,23.0,,,,,,,,,,,,,,,,,,,,,2026-04-01 14:44:15,True,34.765,10.892,380.389,0.164
2026-04-08T16:57:26.670Z,2026-04-08T16:57:26.670Z,14.733,200,,,,,-2.291831,1.432394,173.147846,-0.0,0.0,-0.0,39.0187439,-104.893495,2160.2,-0.259,0.0,0.0,0.0,173.17,-0.011,-0.026,39.0187438,-104.8934952,2160.94,0.0,,29,,,,0.0,,-0.0,,0.137293,0.196133,-9.80665,0.0,0.0,0.0,-224.0,-64.0,450.0,16.429,0.01,0.0,99.0,23.0,,,,,,,,,,,,,,,,,,,,,2026-04-01 14:44:15,True,34.773,10.889,380.306,0.164
2026-04-08T16:57:26.744Z,2026-04-08T16:57:26.744Z,14.807,201,,,,,-2.291831,1.432394,173.147846,0.0,0.0,0.0,39.0187439,-104.893495,2160.19,-0.261,0.0,0.0,0.0,173.17,-0.011,-0.026,39.0187438,-104.8934951,2160.93,0.03,,29,,,,0.0,,-0.0,,0.137293,0.196133,-9.816457,0.0,0.0,0.0,-223.0,-64.0,450.0,16.432,0.01,0.0,99.0,23.0,,,,,,,,,,,,,,,,,,,,,2026-04-01 14:44:15,True,34.78,10.885,380.223,0.164
2026-04-08T16:57:26.817Z,2026-04-08T16:57:26.817Z,14.88,202,,,,,-2.291831,1.432394,173.147846,-0.0,-0.0,-0.0,39.0187439,-104.893495,2160.19,-0.263,0.0,0.0,0.0,173.17,-0.011,-0.026,39.0187438,-104.8934951,2160.93,0.03,,29,,,,0.0,,-0.0,,0.127486,0.196133,-9.826263,0.0,0.0,0.0,-224.0,-64.0,450.0,16.432,0.01,0.0,99.0,23.0,,,,,,,,,,,,,,,,,,,,,2026-04-01 14:44:15,True,34.765,10.889,379.975,0.164
2026-04-08T16:57:26.885Z,2026-04-08T16:57:26.885Z,14.948,203,,,,,-2.291831,1.432394,173.147846,0.0,0.0,0.0,39.0187439,-104.893495,2160.19,-0.263,0.0,0.0,0.0,173.17,-0.011,-0.026,39.0187438,-104.8934951,2160.93,0.03,,29,,,,0.0,,-0.0,,0.137293,0.20594,-9.816457,0.0,0.0,0.0,-224.0,-64.0,450.0,16.432,0.01,0.0,99.0,23.0,,,,,,,,,,,,,,,,,,,,,2026-04-01 14:44:15,True,34.788,10.889,380.389,0.164
2026-04-08T16:57:28.797Z,2026-04-08T16:57:28.797Z,16.86,204,,,,,-2.291831,1.48969,173.147846,0.0,0.057296,0.057296,39.0187439,-104.893495,2160.19,-0.266,0.0,0.01,0.0,173.17,-0.011,-0.026,39.0187438,-104.8934951,2160.93,0.03,,29,,,,0.01,,-0.0,,0.1471,0.196133,-9.80665,0.0,0.0,0.0,-223.0,-64.0,450.0,16.433,0.0,0.0,99.0,22.75,,,,,,,,,,,,,,,,,,,,,2026-04-01 14:44:17,True,34.674,10.892,380.14,0.0
2026-04-08T16:57:28.890Z,2026-04-08T16:57:28.890Z,16.953,205,,,,,-2.291831,1.48969,173.147846,0.0,0.0,-0.0,39.0187439,-104.893495,2160.19,-0.268,0.0,0.01,0.0,173.17,-0.011,-0.026,39.0187438,-104.8934951,2160.93,0.03,,29,,,,0.01,,-0.0,,0.137293,0.186326,-9.826263,0.0,0.0,0.0,-224.0,-64.0,450.0,16.435,0.0,0.0,99.0,22.75,,,,,,,,,,,,,,,,,,,,,2026-04-01 14:44:17,True,34.75,10.889,380.141,0.0
2026-04-08T16:57:28.976Z,2026-04-08T16:57:28.976Z,17.039,206,,,,,-2.291831,1.48969,173.147846,-0.0,0.0,-0.0,39.0187439,-104.893495,2160.19,-0.268,0.0,0.01,0.0,173.16,-0.011,-0.026,39.0187438,-104.893495,2160.93,0.01,,29,,,,0.01,,-0.0,,0.137293,0.186326,-9.80665,0.0,0.0,0.0,-224.0,-64.0,450.0,16.44,0.01,0.0,99.0,22.75,,,,,,,,,,,,,,,,,,,,,2026-04-01 14:44:17,True,34.758,10.885,379.975,0.164
2026-04-08T16:57:29.060Z,2026-04-08T16:57:29.060Z,17.123,207,,,,,-2.291831,1.432394,173.147846,0.0,-0.0,0.057296,39.0187439,-104.893495,2160.18,0.005,0.0,0.01,0.0,173.16,-0.011,-0.026,39.0187438,-104.8934951,2160.93,0.04,,29,,,,0.01,,-0.0,,0.127486,0.20594,-9.816457,0.0,0.0,0.0,-224.0,-64.0,450.0,16.417,0.0,0.0,99.0,22.75,,,,,,,,,,,,,,,,,,,,,2026-04-01 14:44:17,True,34.78,10.885,380.223,0.0
2026-04-08T16:57:29.154Z,2026-04-08T16:57:29.154Z,17.217,208,,,,,-2.291831,1.432394,173.147846,0.0,0.0,0.0,39.0187439,-104.893495,2160.17,0.0,0.0,0.0,0.0,173.16,-0.011,-0.026,39.0187438,-104.8934951,2160.94,0.0,,29,,,,0.0,,-0.0,,0.137293,0.20594,-9.816457,0.0,0.0,0.0,-224.0,-64.0,450.0,16.424,0.01,0.0,99.0,22.75,,,,,,,,,,,,,,,,,,,,,2026-04-01 14:44:17,True,34.742,10.887,380.141,0.164
2026-04-08T16:57:29.237Z,2026-04-08T16:57:29.237Z,17.3,209,,,,,-2.291831,1.432394,173.147846,-0.0,-0.0,0.0,39.0187438,-104.893495,2160.17,-0.003,0.0,0.01,0.0,173.16,-0.022,-0.026,39.0187437,-104.8934951,2160.93,0.03,,29,,,,0.01,,-0.0,,0.1471,0.196133,-9.80665,0.0,0.0,0.0,-224.0,-64.0,450.0,16.424,0.0,0.0,99.0,22.75,,,,,,,,,,,,,,,,,,,,,2026-04-01 14:44:17,True,34.795,10.88,380.223,0.0
2026-04-08T16:57:29.323Z,2026-04-08T16:57:29.323Z,17.386,210,,,,,-2.291831,1.432394,173.147846,0.0,0.0,-0.0,39.0187438,-104.893495,2160.17,-0.005,0.0,0.0,0.0,173.16,-0.022,-0.026,39.0187437,-104.8934951,2160.93,0.03,,29,,,,0.0,,-0.0,,0.137293,0.196133,-9.816457,0.0,0.0,0.0,-224.0,-64.0,450.0,16.422,0.01,0.0,99.0,22.75,,,,,,,,,,,,,,,,,,,,,2026-04-01 14:44:18,True,34.75,10.88,380.306,0.164
2026-04-08T16:57:29.409Z,2026-04-08T16:57:29.409Z,17.472,211,,,,,-2.291831,1.432394,173.147846,0.0,-0.0,0.057296,39.0187438,-104.893495,2160.17,-0.006,0.0,0.0,0.0,173.16,-0.022,-0.026,39.0187437,-104.8934951,2160.93,0.02,,29,,,,0.0,,-0.0,,0.127486,0.186326,-9.816457,0.0,0.0,0.0,-224.0,-64.0,450.0,16.427,0.01,0.0,99.0,23.0,,,,,,,,,,,,,,,,,,,,,2026-04-01 14:44:18,True,34.795,10.889,380.141,0.164
2026-04-08T16:57:29.499Z,2026-04-08T16:57:29.499Z,17.562,212,,,,,-2.291831,1.432394,173.147846,0.0,0.0,0.0,39.0187438,-104.893495,2160.17,-0.005,0.0,0.0,0.0,173.16,-0.022,-0.026,39.0187437,-104.8934951,2160.93,0.01,,29,,,,0.0,,-0.0,,0.137293,0.196133,-9.80665,0.0,0.0,0.0,-224.0,-64.0,450.0,16.424,0.01,0.0,99.0,22.75,,,,,,,,,,,,,,,,,,,,,2026-04-01 14:44:18,True,34.75,10.88,380.471,0.164
2026-04-08T16:57:29.586Z,2026-04-08T16:57:29.586Z,17.649,213,,,,,-2.291831,1.432394,173.147846,-0.0,-0.0,0.0,39.0187438,-104.893495,2160.17,-0.006,0.0,0.0,0.0,173.16,-0.022,-0.026,39.0187437,-104.8934951,2160.94,0.0,,29,,,,0.0,,-0.0,,0.127486,0.196133,-9.816457,0.0,0.0,0.0,-224.0,-64.0,450.0,16.423,0.01,0.0,99.0,23.0,,,,,,,,,,,,,,,,,,,,,2026-04-01 14:44:18,True,34.773,10.88,380.471,0.164
2026-04-08T16:57:29.671Z,2026-04-08T16:57:29.671Z,17.734,214,,,,,-2.291831,1.432394,173.147846,-0.0,-0.057296,-0.057296,39.0187438,-104.893495,2160.16,-0.01,0.0,0.0,0.0,173.16,-0.022,-0.026,39.0187437,-104.8934951,2160.94,0.02,,29,,,,0.0,,-0.0,,0.137293,0.196133,-9.816457,0.0,0.0,-0.001,-224.0,-64.0,450.0,16.426,0.01,0.0,99.0,23.0,,,,,,,,,,,,,,,,,,,,,2026-04-01 14:44:18,True,34.765,10.88,380.223,0.164
2026-04-08T16:57:29.776Z,2026-04-08T16:57:29.776Z,17.839,215,,,,,-2.291831,1.432394,173.147846,-0.057296,-0.0,0.057296,39.0187438,-104.893495,2160.16,-0.012,0.0,0.0,0.0,173.16,-0.022,-0.026,39.0187437,-104.8934951,2160.95,0.0,,29,,,,0.0,,-0.0,,0.127486,0.20594,-9.816457,0.0,0.0,0.0,-224.0,-64.0,450.0,16.423,0.01,0.0,99.0,23.0,,,,,,,,,,,,,,,,,,,,,2026-04-01 14:44:18,True,34.742,10.887,379.81,0.164
2026-04-08T16:57:29.872Z,2026-04-08T16:57:29.872Z,17.935,216,,,,,-2.291831,1.432394,173.147846,-0.0,-0.0,-0.057296,39.0187438,-104.893495,2160.16,-0.012,0.0,0.0,0.0,173.16,-0.022,-0.026,39.0187436,-104.8934951,2160.95,0.02,,29,,,,0.0,,-0.0,,0.127486,0.20594,-9.816457,0.0,0.0,-0.001,-223.0,-64.0,450.0,16.429,0.0,0.0,99.0,22.75,,,,,,,,,,,,,,,,,,,,,2026-04-01 14:44:18,True,34.742,10.882,380.141,0.0
2026-04-08T16:57:29.974Z,2026-04-08T16:57:29.974Z,18.037,217,,,,,-2.291831,1.432394,173.147846,0.0,0.057296,-0.0,39.0187437,-104.893495,2160.16,-0.013,0.0,0.0,0.0,173.16,-0.033,-0.026,39.0187436,-104.893495,2160.95,0.02,,29,,,,0.0,,-0.0,,0.127486,0.196133,-9.80665,0.0,0.0,0.0,-224.0,-64.0,450.0,16.422,0.01,0.0,99.0,23.0,,,,,,,,,,,,,,,,,,,,,2026-04-01 14:44:18,True,34.773,10.894,380.14,0.164
2026-04-08T16:57:30.066Z,2026-04-08T16:57:30.066Z,18.129,218,,,,,-2.291831,1.432394,173.147846,-0.0,0.0,-0.057296,39.0187437,-104.8934949,2160.16,-0.016,0.0,0.01,0.0,173.17,-0.033,-0.017,39.0187436,-104.893495,2160.94,0.01,,29,,,,0.01,,-0.0,,0.137293,0.215746,-9.80665,0.0,0.0,-0.001,-224.0,-64.0,450.0,16.429,0.01,0.0,99.0,22.75,,,,,,,,,,,,,,,,,,,,,2026-04-01 14:44:18,True,34.773,10.887,380.058,0.164
2026-04-08T16:57:30.158Z,2026-04-08T16:57:30.158Z,18.221,219,,,,,-2.291831,1.432394,173.147846,0.0,-0.0,0.057296,39.0187437,-104.8934949,2160.15,-0.023,0.0,0.0,0.0,173.17,-0.033,-0.017,39.0187436,-104.893495,2160.95,0.01,,29,,,,0.0,,-0.0,,0.137293,0.215746,-9.80665,0.0,0.0,0.0,-224.0,-64.0,450.0,16.169,0.19,0.0,99.0,22.75,,,,,,,,,,,,,,,,,,,,,2026-04-01 14:44:18,True,34.758,10.882,380.306,3.072
2026-04-08T16:57:30.246Z,2026-04-08T16:57:30.246Z,18.309,220,,,,,-2.291831,1.432394,173.205141,-0.229183,0.0,0.974028,39.0187437,-104.8934949,2160.15,-0.027,0.0,0.0,0.0,173.18,-0.033,-0.017,39.0187436,-104.893495,2160.94,0.03,,29,,,,0.0,,-0.0,,0.333426,0.08826,-9.904716,-0.003,0.0,0.016,-225.0,-64.0,445.0,16.284,0.0,0.0,99.0,22.75,,,,,,,,,,,,,,,,,,,,,2026-04-01 14:44:19,True,34.758,10.88,380.306,0.0
2026-04-08T16:57:30.332Z,2026-04-08T16:57:30.332Z,18.395,221,,,,,-2.291831,1.432394,173.205141,-0.687549,0.114592,0.40107,39.0187437,-104.8934949,2160.14,-0.03,0.0,0.0,0.0,173.16,-0.033,-0.017,39.0187436,-104.8934949,2160.94,0.01,,29,,,,0.0,,-0.0,,0.05884,0.245166,-9.757617,-0.011,0.001,0.007,-225.0,-65.0,446.0,16.284,0.0,0.0,99.0,22.75,,,,,,,,,,,,,,,,,,,,,2026-04-01 14:44:19,True,34.773,10.882,380.389,0.0
2026-04-08T16:57:30.404Z,2026-04-08T16:57:30.404Z,18.467,222,,,,,-2.291831,1.48969,173.147846,-0.515662,0.343775,-0.515662,39.0187437,-104.8934949,2160.14,-0.032,0.0,0.0,0.0,173.16,-0.033,-0.017,39.0187436,-104.893495,2160.94,0.03,,29,,,,0.0,,-0.0,,0.0,0.127486,-9.757617,-0.009,0.006,-0.009,-225.0,-64.0,446.0,16.284,0.0,0.0,99.0,23.0,,,,,,,,,,,,,,,,,,,,,2026-04-01 14:44:19,True,34.788,10.889,380.14,0.0
2026-04-08T16:57:30.482Z,2026-04-08T16:57:30.482Z,18.545,223,,,,,-2.349127,1.432394,173.147846,0.0,-0.171887,-0.458366,39.0187437,-104.8934949,2160.14,-0.033,0.0,0.0,0.0,173.18,-0.033,-0.017,39.0187436,-104.893495,2160.94,0.03,,29,,,,0.0,,-0.0,,0.127486,-0.17652,-9.698777,0.0,-0.003,-0.008,-225.0,-64.0,446.0,16.284,0.0,0.0,99.0,23.0,,,,,,,,,,,,,,,,,,,,,2026-04-01 14:44:19,True,34.765,10.882,380.554,0.0
2026-04-08T16:57:30.554Z,2026-04-08T16:57:30.554Z,18.617,224,,,,,-2.234535,1.432394,173.205141,0.0,0.458366,0.343775,39.0187436,-104.8934949,2160.14,-0.034,0.0,0.01,0.0,173.19,-0.044,-0.017,39.0187435,-104.893495,2160.94,0.03,,29,,,,0.01,,-0.0,,0.313813,0.431493,-9.963556,0.0,0.007,0.005,-224.0,-64.0,446.0,16.308,0.0,0.0,99.0,22.75,,,,,,,,,,,,,,,,,,,,,2026-04-01 14:44:19,True,34.803,10.892,380.223,0.0
2026-04-08T16:57:30.628Z,2026-04-08T16:57:30.628Z,18.691,225,,,,,-2.291831,1.48969,173.147846,-0.458366,0.171887,0.343775,39.0187436,-104.8934949,2160.14,-0.035,0.0,0.02,0.0,173.18,-0.044,-0.017,39.0187435,-104.893495,2160.94,0.03,,29,,,,0.02,,-0.0,,-0.098066,0.23536,-9.796843,-0.007,0.002,0.005,-225.0,-65.0,446.0,16.308,0.0,0.0,99.0,22.75,,,,,,,,,,,,,,,,,,,,,2026-04-01 14:44:19,True,34.788,10.889,380.058,0.0
2026-04-08T16:57:30.746Z,2026-04-08T16:57:30.746Z,18.809,226,,,,,-2.291831,1.432394,173.147846,-0.229183,0.40107,-0.229183,39.0187436,-104.8934949,2160.14,-0.036,-0.02,0.01,0.0,173.17,-0.044,-0.017,39.0187435,-104.8934949,2160.95,0.02,,29,,,,0.022,,-0.0,,0.166713,0.26478,-9.934136,-0.003,0.007,-0.003,-224.0,-64.0,446.0,16.324,0.0,0.0,99.0,23.0,,,,,,,,,,,,,,,,,,,,,2026-04-01 14:44:19,True,34.727,10.885,380.141,0.0
2026-04-08T16:57:30.824Z,2026-04-08T16:57:30.824Z,18.887,227,,,,,-2.291831,1.48969,173.147846,-0.687549,0.114592,-0.114592,39.0187436,-104.8934948,2160.14,-0.035,-0.02,0.01,0.0,173.17,-0.044,-0.009,39.0187435,-104.8934949,2160.95,0.02,,29,,,,0.022,,-0.0,,-0.068647,0.009807,-9.787037,-0.012,0.001,-0.002,-226.0,-64.0,446.0,16.324,0.0,0.0,99.0,22.75,,,,,,,,,,,,,,,,,,,,,2026-04-01 14:44:19,True,34.78,10.885,380.389,0.0
2026-04-08T16:57:30.902Z,2026-04-08T16:57:30.902Z,18.965,228,,,,,-2.234535,1.432394,173.147846,-0.114592,0.458366,-0.40107,39.0187435,-104.8934948,2160.14,-0.034,0.0,0.01,0.0,173.18,-0.056,-0.009,39.0187435,-104.8934949,2160.94,0.03,,29,,,,0.01,,-0.0,,0.0,0.470719,-9.885103,-0.001,0.007,-0.007,-224.0,-65.0,446.0,16.324,0.0,0.0,99.0,22.75,,,,,,,,,,,,,,,,,,,,,2026-04-01 14:44:19,True,34.795,10.877,380.223,0.0
2026-04-08T16:57:30.974Z,2026-04-08T16:57:30.974Z,19.037,229,,,,,-2.291831,1.432394,173.205141,-0.572958,-0.40107,0.229183,39.0187435,-104.8934948,2160.14,-0.031,-0.01,0.0,0.0,173.17,-0.056,-0.009,39.0187435,-104.8934949,2160.94,0.03,,29,,,,0.01,,-0.0,,-0.05884,0.068647,-9.708584,-0.009,-0.007,0.004,-224.0,-65.0,446.0,16.319,0.0,0.0,99.0,23.0,,,,,,,,,,,,,,,,,,,,,2026-04-01 14:44:19,True,34.795,10.887,379.892,0.0
2026-04-08T16:57:31.057Z,2026-04-08T16:57:31.057Z,19.12,230,,,,,-2.291831,1.432394,173.147846,0.0,0.458366,-0.171887,39.0187435,-104.8934948,2160.14,-0.03,0.0,0.01,0.0,173.19,-0.056,-0.009,39.0187435,-104.8934949,2160.94,0.03,,29,,,,0.01,,-0.0,,0.08826,0.362846,-9.845877,0.0,0.007,-0.002,-225.0,-64.0,446.0,16.319,0.0,0.0,99.0,22.75,,,,,,,,,,,,,,,,,,,,,2026-04-01 14:44:19,True,34.742,10.885,380.058,0.0
2026-04-08T16:57:31.144Z,2026-04-08T16:57:31.144Z,19.207,231,,,,,-2.291831,1.432394,173.205141,-0.572958,0.114592,-0.114592,39.0187435,-104.8934948,2160.15,-0.028,-0.01,0.01,0.0,173.18,-0.056,-0.009,39.0187434,-104.8934948,2160.93,0.01,,29,,,,0.014,,-0.0,,0.17652,0.323619,-9.992976,-0.009,0.002,-0.001,-224.0,-64.0,446.0,16.321,0.0,0.0,99.0,22.75,,,,,,,,,,,,,,,,,,,,,2026-04-01 14:44:19,True,34.758,10.882,380.306,0.0
2026-04-08T16:57:31.215Z,2026-04-08T16:57:31.215Z,19.278,232,,,,,-2.291831,1.432394,173.205141,0.572958,0.171887,0.114592,39.0187435,-104.8934947,2160.15,-0.026,0.0,0.01,0.0,173.17,-0.056,0.0,39.0187434,-104.8934948,2160.93,0.01,,29,,,,0.01,,-0.0,,0.245166,0.451106,-9.83607,0.01,0.002,0.001,-224.0,-65.0,446.0,16.321,0.0,0.0,99.0,23.0,,,,,,,,,,,,,,,,,,,,,2026-04-01 14:44:19,True,34.795,10.894,380.389,0.0
2026-04-08T16:57:31.287Z,2026-04-08T16:57:31.287Z,19.35,233,,,,,-2.291831,1.432394,173.205141,-0.057296,-0.343775,-0.171887,39.0187435,-104.8934947,2160.15,-0.024,0.0,0.02,0.0,173.17,-0.056,0.0,39.0187434,-104.8934948,2160.93,0.01,,29,,,,0.02,,-0.0,,0.0,-0.05884,-9.68897,0.0,-0.005,-0.003,-224.0,-65.0,446.0,16.321,0.0,0.0,99.0,22.75,,,,,,,,,,,,,,,,,,,,,2026-04-01 14:44:20,True,34.788,10.889,380.141,0.0
2026-04-08T16:57:31.357Z,2026-04-08T16:57:31.357Z,19.42,234,,,,,-2.291831,1.432394,173.205141,-0.114592,-0.687549,0.057296,39.0187435,-104.8934947,2160.15,-0.023,0.0,0.01,0.0,173.18,-0.056,0.0,39.0187434,-104.8934948,2160.93,0.01,,29,,,,0.01,,-0.0,,0.284393,-0.08826,-9.767423,-0.001,-0.012,0.0,-224.0,-64.0,446.0,16.321,0.0,0.0,99.0,22.75,,,,,,,,,,,,,,,,,,,,,2026-04-01 14:44:20,True,34.78,10.894,379.975,0.0
2026-04-08T16:57:31.435Z,2026-04-08T16:57:31.435Z,19.498,235,,,,,-2.291831,1.432394,173.205141,0.458366,-0.171887,-0.229183,39.0187435,-104.8934947,2160.15,-0.022,-0.02,0.0,0.0,173.17,-0.056,0.0,39.0187434,-104.8934948,2160.93,0.01,,29,,,,0.02,,-0.0,,0.11768,0.0,-9.698777,0.007,-0.002,-0.004,-225.0,-64.0,446.0,16.321,0.0,0.0,99.0,22.75,,,,,,,,,,,,,,,,,,,,,2026-04-01 14:44:20,True,34.765,10.887,380.141,0.0
2026-04-08T16:57:31.506Z,2026-04-08T16:57:31.506Z,19.569,236,,,,,-2.291831,1.432394,173.205141,-0.744845,0.171887,0.171887,39.0187435,-104.8934947,2160.15,-0.021,-0.01,0.01,0.0,173.18,-0.056,0.0,39.0187435,-104.8934949,2160.92,0.04,,29,,,,0.014,,-0.0,,0.019613,0.26478,-9.904716,-0.013,0.002,0.002,-224.0,-64.0,446.0,16.321,0.0,0.0,99.0,23.0,,,,,,,,,,,,,,,,,,,,,2026-04-01 14:44:20,True,34.795,10.892,380.058,0.0
2026-04-08T16:57:31.573Z,2026-04-08T16:57:31.573Z,19.636,237,,,,,-2.291831,1.432394,173.205141,0.630254,-0.286479,-0.286479,39.0187435,-104.8934947,2160.15,-0.02,0.0,0.01,0.0,173.17,-0.056,0.0,39.0187435,-104.8934949,2160.92,0.04,,29,,,,0.01,,-0.0,,0.20594,0.225553,-9.71839,0.01,-0.005,-0.005,-224.0,-64.0,446.0,16.321,0.0,0.0,99.0,22.75,,,,,,,,,,,,,,,,,,,,,2026-04-01 14:44:20,True,34.795,10.899,380.306,0.0
2026-04-08T16:57:31.655Z,2026-04-08T16:57:31.655Z,19.718,238,,,,,-2.291831,1.48969,173.205141,-0.630254,0.171887,0.40107,39.0187435,-104.8934948,2160.15,-0.02,-0.01,0.01,0.0,173.18,-0.056,-0.009,39.0187435,-104.8934949,2160.92,0.04,,29,,,,0.014,,-0.0,,-0.039227,0.215746,-9.787037,-0.011,0.002,0.006,-225.0,-64.0,446.0,16.321,0.0,0.0,99.0,22.75,,,,,,,,,,,,,,,,,,,,,2026-04-01 14:44:20,True,34.773,10.882,380.306,0.0
2026-04-08T16:57:31.725Z,2026-04-08T16:57:31.725Z,19.788,239,,,,,-2.291831,1.48969,173.205141,-0.40107,0.286479,0.286479,39.0187435,-104.8934948,2160.16,-0.019,-0.01,0.0,0.0,173.18,-0.056,-0.009,39.0187435,-104.8934949,2160.92,0.02,,29,,,,0.01,,-0.0,,-0.049033,0.304006,-9.77723,-0.007,0.004,0.004,-224.0,-65.0,446.0,16.321,0.0,0.0,99.0,22.75,,,,,,,,,,,,,,,,,,,,,2026-04-01 14:44:20,True,34.795,10.887,380.058,0.0
2026-04-08T16:57:31.789Z,2026-04-08T16:57:31.789Z,19.852,240,,,,,-2.291831,1.432394,173.205141,-0.859437,-0.114592,0.286479,39.0187436,-104.8934948,2160.16,-0.017,0.0,0.0,0.0,173.18,-0.044,-0.009,39.0187435,-104.8934949,2160.92,0.02,,29,,,,0.0,,-0.0,,0.156906,-0.02942,-9.855683,-0.014,-0.002,0.004,-225.0,-65.0,446.0,16.324,0.0,0.0,99.0,23.0,,,,,,,,,,,,,,,,,,,,,2026-04-01 14:44:20,True,34.788,10.901,379.892,0.0
2026-04-08T16:57:31.867Z,2026-04-08T16:57:31.867Z,19.93,241,,,,,-2.291831,1.432394,173.205141,0.229183,-0.0,-0.229183,39.0187436,-104.8934948,2160.16,-0.017,0.0,0.0,0.0,173.17,-0.044,-0.009,39.0187435,-104.8934949,2160.92,0.02,,29,,,,0.0,,-0.0,,0.313813,0.323619,-10.002783,0.003,0.0,-0.004,-225.0,-65.0,446.0,16.324,0.0,0.0,99.0,22.75,,,,,,,,,,,,,,,,,,,,,2026-04-01 14:44:20,True,34.75,10.88,380.306,0.0
2026-04-08T16:57:31.937Z,2026-04-08T16:57:31.937Z,20.0,242,,,,,-2.291831,1.432394,173.205141,0.802141,-0.171887,0.0,39.0187436,-104.8934948,2160.16,-0.014,-0.01,0.0,0.0,173.18,-0.044,-0.009,39.0187435,-104.8934949,2160.92,0.02,,29,,,,0.01,,-0.0,,0.313813,0.343233,-9.757617,0.013,-0.003,0.0,-223.0,-64.0,446.0,16.324,0.0,0.0,99.0,23.0,,,,,,,,,,,,,,,,,,,,,2026-04-01 14:44:20,True,34.773,10.892,380.223,0.0
2026-04-08T16:57:32.008Z,2026-04-08T16:57:32.008Z,20.071,243,,,,,-2.291831,1.432394,173.205141,0.114592,-0.171887,0.0,39.0187436,-104.8934948,2160.16,-0.013,0.0,0.01,0.0,173.17,-0.044,-0.009,39.0187435,-104.8934949,2160.92,0.02,,29,,,,0.01,,-0.0,,0.20594,0.225553,-9.86549,0.002,-0.003,0.0,-225.0,-64.0,446.0,16.324,0.0,0.0,99.0,22.75,,,,,,,,,,,,,,,,,,,,,2026-04-01 14:44:20,True,34.773,10.894,380.058,0.0
2026-04-08T16:57:32.081Z,2026-04-08T16:57:32.081Z,20.144,244,,,,,-2.349127,1.432394,173.205141,-0.229183,-0.687549,0.057296,39.0187436,-104.8934948,2160.16,-0.011,0.0,0.0,0.0,173.17,-0.044,-0.009,39.0187435,-104.8934949,2160.92,0.02,,29,,,,0.0,,-0.0,,0.068647,-0.02942,-9.68897,-0.003,-0.012,0.0,-225.0,-64.0,446.0,16.324,0.0,0.0,99.0,22.75,,,,,,,,,,,,,,,,,,,,,2026-04-01 14:44:20,True,34.795,10.894,379.892,0.0
2026-04-08T16:57:32.151Z,2026-04-08T16:57:32.151Z,20.214,245,,,,,-2.291831,1.432394,173.205141,0.572958,-0.286479,0.114592,39.0187436,-104.8934947,2160.17,-0.008,0.0,0.01,0.0,173.17,-0.044,0.0,39.0187435,-104.8934948,2160.91,0.02,,29,,,,0.01,,-0.0,,0.362846,0.20594,-9.63013,0.01,-0.005,0.002,-224.0,-64.0,446.0,16.316,0.0,0.0,99.0,22.75,,,,,,,,,,,,,,,,,,,,,2026-04-01 14:44:20,True,34.795,10.892,380.223,0.0
2026-04-08T16:57:32.245Z,2026-04-08T16:57:32.245Z,20.308,246,,,,,-2.291831,1.432394,173.205141,0.458366,-0.171887,-0.0,39.0187436,-104.8934947,2160.17,-0.005,0.0,0.0,0.0,173.17,-0.044,0.0,39.0187435,-104.8934948,2160.91,0.02,,29,,,,0.0,,-0.0,,0.186326,0.225553,-9.74781,0.008,-0.002,0.0,-224.0,-64.0,446.0,16.316,0.0,0.0,99.0,23.0,,,,,,,,,,,,,,,,,,,,,2026-04-01 14:44:21,True,34.742,10.885,380.141,0.0
2026-04-08T16:57:32.320Z,2026-04-08T16:57:32.320Z,20.383,247,,,,,-2.291831,1.432394,173.205141,-0.802141,-0.057296,0.171887,39.0187435,-104.8934947,2160.18,0.0,-0.01,0.01,0.0,173.17,-0.056,0.0,39.0187434,-104.8934948,2160.91,0.01,,29,,,,0.014,,-0.0,,-0.098066,0.098066,-9.767423,-0.014,-0.001,0.002,-224.0,-65.0,446.0,16.316,0.0,0.0,99.0,23.0,,,,,,,,,,,,,,,,,,,,,2026-04-01 14:44:21,True,34.788,10.889,380.223,0.0
2026-04-08T16:57:32.385Z,2026-04-08T16:57:32.385Z,20.448,248,,,,,-2.291831,1.432394,173.205141,0.0,0.343775,0.057296,39.0187435,-104.8934947,2160.18,0.005,-0.02,0.0,0.0,173.17,-0.056,0.0,39.0187434,-104.8934948,2160.91,0.01,,29,,,,0.02,,-0.0,,0.254973,0.343233,-10.01259,0.0,0.005,0.0,-224.0,-65.0,446.0,16.324,0.0,0.0,99.0,22.75,,,,,,,,,,,,,,,,,,,,,2026-04-01 14:44:21,True,34.795,10.892,379.727,0.0
2026-04-08T16:57:32.484Z,2026-04-08T16:57:32.484Z,20.547,249,,,,,-2.291831,1.432394,173.205141,0.515662,0.057296,-0.229183,39.0187435,-104.8934947,2160.18,0.007,0.0,0.0,0.0,173.17,-0.056,0.0,39.0187434,-104.8934948,2160.91,0.01,,29,,,,0.0,,-0.0,,0.431493,0.333426,-9.95375,0.009,0.0,-0.004,-225.0,-64.0,446.0,16.324,0.0,0.0,99.0,23.0,,,,,,,,,,,,,,,,,,,,,2026-04-01 14:44:21,True,34.735,10.885,380.223,0.0
2026-04-08T16:57:32.554Z,2026-04-08T16:57:32.554Z,20.617,250,,,,,-2.291831,1.432394,173.205141,0.343775,-0.343775,0.171887,39.0187435,-104.8934948,2160.19,0.014,0.0,0.0,0.0,173.17,-0.056,-0.009,39.0187434,-104.8934948,2160.91,0.03,,29,,,,0.0,,-0.0,,0.20594,0.215746,-9.74781,0.006,-0.005,0.003,-224.0,-65.0,446.0,16.319,0.0,0.0,99.0,22.75,,,,,,,,,,,,,,,,,,,,,2026-04-01 14:44:21,True,34.758,10.887,379.892,0.0
2026-04-08T16:57:32.627Z,2026-04-08T16:57:32.627Z,20.69,251,,,,,-2.291831,1.432394,173.205141,0.0,-0.458366,0.057296,39.0187435,-104.8934948,2160.19,0.017,-0.01,0.0,0.0,173.16,-0.056,-0.009,39.0187434,-104.8934948,2160.91,0.03,,29,,,,0.01,,-0.0,,0.166713,0.225553,-9.816457,0.0,-0.008,0.0,-225.0,-64.0,446.0,16.319,0.0,0.0,99.0,22.75,,,,,,,,,,,,,,,,,,,,,2026-04-01 14:44:21,True,34.765,10.882,380.471,0.0
2026-04-08T16:57:32.701Z,2026-04-08T16:57:32.701Z,20.764,252,,,,,-2.291831,1.432394,173.147846,-0.859437,-0.171887,0.057296,39.0187435,-104.8934948,2160.19,0.019,0.0,0.0,0.0,173.17,-0.056,-0.009,39.0187435,-104.8934949,2160.91,0.02,,29,,,,0.0,,-0.0,,0.049033,0.2942,-9.914523,-0.014,-0.003,0.0,-223.0,-65.0,444.0,16.319,0.0,0.0,99.0,23.0,,,,,,,,,,,,,,,,,,,,,2026-04-01 14:44:21,True,34.795,10.894,380.223,0.0
2026-04-08T16:57:32.774Z,2026-04-08T16:57:32.774Z,20.837,253,,,,,-2.349127,1.432394,173.147846,-0.057296,-0.343775,-0.229183,39.0187435,-104.8934948,2160.2,0.021,-0.01,0.0,0.0,173.17,-0.056,-0.009,39.0187435,-104.8934949,2160.91,0.02,,29,,,,0.01,,-0.0,,0.225553,-0.098066,-10.002783,-0.001,-0.005,-0.003,-223.0,-65.0,444.0,15.945,1.61,0.0,99.0,22.75,,,,,,,,,,,,,,,,,,,,,2026-04-01 14:44:21,True,34.803,10.889,380.306,25.671
2026-04-08T16:57:32.853Z,2026-04-08T16:57:32.853Z,20.916,254,,,,,-2.291831,1.432394,173.147846,-0.0,-0.114592,0.171887,39.0187435,-104.8934948,2160.2,0.022,-0.01,0.0,0.0,173.17,-0.056,-0.009,39.0187435,-104.8934949,2160.91,0.02,,29,,,,0.01,,-0.0,,-0.215746,0.353039,-9.590904,0.0,-0.001,0.002,-221.0,-66.0,442.0,15.945,1.61,0.0,99.0,23.0,,,,,,,,,,,,,,,,,,,,,2026-04-01 14:44:21,True,34.788,10.887,379.81,25.671
2026-04-08T16:57:32.923Z,2026-04-08T16:57:32.923Z,20.986,255,,,,,-2.349127,1.432394,173.205141,-0.40107,0.114592,0.057296,39.0187435,-104.8934948,2160.2,0.023,-0.01,0.0,0.0,173.17,-0.056,-0.009,39.0187435,-104.8934948,2160.91,0.0,,29,,,,0.01,,-0.0,,0.254973,0.166713,-9.845877,-0.007,0.002,0.0,-217.0,-68.0,440.0,15.945,1.61,0.0,99.0,22.75,,,,,,,,,,,,,,,,,,,,,2026-04-01 14:44:21,True,34.795,10.892,380.223,25.671
2026-04-08T16:57:32.988Z,2026-04-08T16:57:32.988Z,21.051,256,,,,,-2.349127,1.375099,173.205141,-0.572958,-0.343775,-0.171887,39.0187435,-104.8934948,2160.2,0.024,-0.01,0.0,-0.01,173.17,-0.056,-0.009,39.0187435,-104.8934948,2160.91,0.0,,29,,,,0.01,,0.01,,0.304006,0.382459,-9.885103,-0.009,-0.006,-0.003,-217.0,-69.0,438.0,15.545,7.77,0.0,99.0,22.75,,,,,,,,,,,,,,,,,,,,,2026-04-01 14:44:21,True,34.803,10.889,380.223,120.785
2026-04-08T16:57:33.066Z,2026-04-08T16:57:33.066Z,21.129,257,,,,,-2.349127,1.375099,173.147846,-1.08862,-0.171887,-0.229183,39.0187435,-104.8934948,2160.2,0.025,0.0,0.01,0.0,173.18,-0.056,-0.009,39.0187435,-104.8934948,2160.91,0.0,,29,,,,0.01,,-0.0,,0.23536,0.529559,-9.855683,-0.018,-0.003,-0.004,-217.0,-69.0,438.0,15.545,7.77,0.0,99.0,23.0,,,,,,,,,,,,,,,,,,,,,2026-04-01 14:44:21,True,34.78,10.88,380.058,120.785
2026-04-08T16:57:33.141Z,2026-04-08T16:57:33.141Z,21.204,258,,,,,-2.463719,1.260507,173.147846,-2.635606,-1.375099,-0.286479,39.0187435,-104.8934948,2160.2,0.028,-0.01,0.0,-0.02,173.17,-0.056,-0.009,39.0187435,-104.8934948,2160.92,0.0,,29,,,,0.01,,0.02,,0.0,0.392266,-10.189109,-0.046,-0.024,-0.005,-212.0,-70.0,435.0,15.545,7.77,0.0,99.0,22.75,,,,,,,,,,,,,,,,,,,,,2026-04-01 14:44:21,True,34.795,10.896,380.306,120.785
2026-04-08T16:57:33.214Z,2026-04-08T16:57:33.214Z,21.277,259,,,,,-2.807493,0.974028,173.262437,-4.010705,-7.677634,0.572958,39.0187435,-104.8934948,2160.21,0.037,-0.02,0.06,-0.11,173.23,-0.056,-0.009,39.0187435,-104.8934948,2160.92,0.0,,29,,,,0.063,,0.11,,0.343233,0.333426,-10.699055,-0.069,-0.133,0.009,-209.0,-73.0,432.0,15.545,7.77,0.0,99.0,23.0,,,,,,,,,,,,,,,,,,,,,2026-04-01 14:44:21,True,34.78,10.894,380.306,120.785
2026-04-08T16:57:33.285Z,2026-04-08T16:57:33.285Z,21.348,260,,,,,-3.552338,0.687549,173.49162,-5.614986,-4.640958,4.239888,39.0187435,-104.8934947,2160.22,0.047,-0.01,0.11,-0.19,173.51,-0.056,0.0,39.0187435,-104.8934948,2160.92,0.0,,29,,,,0.11,,0.19,,0.17652,-0.009807,-11.434554,-0.098,-0.081,0.073,-209.0,-73.0,432.0,15.545,7.77,0.0,99.0,22.75,,,,,,,,,,,,,,,,,,,,,2026-04-01 14:44:22,True,34.788,10.882,379.975,120.785
2026-04-08T16:57:33.361Z,2026-04-08T16:57:33.361Z,21.424,261,,,,,-3.380451,0.40107,173.720803,3.66693,-1.604282,3.437747,39.0187435,-104.8934946,2160.24,0.067,0.0,0.16,-0.26,173.76,-0.056,0.009,39.0187435,-104.8934948,2160.93,0.06,,29,,,,0.16,,0.26,,-0.254973,0.11768,-10.630409,0.063,-0.027,0.059,-207.0,-78.0,433.0,15.328,10.46,2.0,99.0,22.75,,,,,,,,,,,,,,,,,,,,,2026-04-01 14:44:22,True,34.803,10.885,380.306,160.331
2026-04-08T16:57:33.438Z,2026-04-08T16:57:33.438Z,21.501,262,,,,,-2.864789,0.458366,173.892691,12.261297,-0.171887,2.463719,39.0187436,-104.8934945,2160.26,0.088,0.0,0.19,-0.32,173.9,-0.044,0.017,39.0187435,-104.8934948,2160.93,0.06,,29,,,,0.19,,0.32,,-0.284393,0.009807,-10.591182,0.214,-0.003,0.043,-207.0,-77.0,439.0,15.328,10.46,2.0,99.0,22.75,,,,,,,,,,,,,,,,,,,,,2026-04-01 14:44:22,True,34.788,10.882,380.141,160.331
2026-04-08T16:57:33.509Z,2026-04-08T16:57:33.509Z,21.572,263,,,,,-1.604282,-0.114592,173.949987,14.323945,-9.052733,-0.630254,39.0187436,-104.8934943,2160.3,0.122,0.0,0.23,-0.38,173.94,-0.044,0.035,39.0187435,-104.8934946,2160.97,0.11,,29,,,,0.23,,0.38,,-0.078453,-0.333426,-10.571569,0.25,-0.158,-0.011,-204.0,-68.0,439.0,15.328,10.46,2.0,99.0,22.75,,,,,,,,,,,,,,,,,,,,,2026-04-01 14:44:22,True,34.795,10.889,380.223,160.331
2026-04-08T16:57:33.579Z,2026-04-08T16:57:33.579Z,21.642,264,,,,,-0.458366,-0.229183,173.778099,15.870931,3.781521,-3.953409,39.0187436,-104.8934941,2160.33,0.155,0.02,0.24,-0.43,173.71,-0.044,0.052,39.0187435,-104.8934946,2160.97,0.11,,29,,,,0.241,,0.43,,0.166713,-0.598206,-10.640215,0.277,0.066,-0.069,-204.0,-68.0,439.0,15.244,11.86,2.0,99.0,22.75,,,,,,,,,,,,,,,,,,,,,2026-04-01 14:44:22,True,34.803,10.889,379.975,180.794
2026-04-08T16:57:33.656Z,2026-04-08T16:57:33.656Z,21.719,265,,,,,0.171887,-0.229183,173.548916,15.870931,-3.036676,-6.302536,39.0187436,-104.8934939,2160.35,0.176,0.0,0.24,-0.47,173.43,-0.044,0.069,39.0187435,-104.8934946,2160.97,0.11,,29,,,,0.24,,0.47,,0.156906,-0.08826,-10.846155,0.277,-0.053,-0.109,-201.0,-56.0,444.0,15.244,11.86,2.0,99.0,23.0,,,,,,,,,,,,,,,,,,,,,2026-04-01 14:44:22,True,34.773,10.88,379.975,180.794
2026-04-08T16:57:33.728Z,2026-04-08T16:57:33.728Z,21.791,266,,,,,1.145916,-0.572958,172.403001,3.781521,1.833465,-12.146705,39.0187436,-104.8934936,2160.41,0.237,0.0,0.28,-0.57,172.32,-0.044,0.095,39.0187435,-104.8934942,2161.08,0.28,,29,,,,0.28,,0.57,,-0.039227,-0.578592,-10.885382,0.065,0.032,-0.212,-197.0,-49.0,445.0,15.244,11.86,2.0,99.0,22.75,,,,,,,,,,,,,,,,,,,,,2026-04-01 14:44:22,True,34.765,10.896,380.223,180.794
2026-04-08T16:57:33.793Z,2026-04-08T16:57:33.793Z,21.856,267,,,,,1.890761,-0.859437,171.658155,15.011494,-8.479775,-10.542423,39.0187436,-104.8934933,2160.46,0.285,-0.01,0.28,-0.64,171.53,-0.044,0.121,39.0187435,-104.8934942,2161.08,0.28,,29,,,,0.28,,0.64,,-0.11768,-0.08826,-10.748088,0.261,-0.147,-0.184,-197.0,-45.0,448.0,15.249,12.09,3.0,99.0,22.75,,,,,,,,,,,,,,,,,,,,,2026-04-01 14:44:22,True,34.803,10.901,380.637,184.36
2026-04-08T16:57:33.878Z,2026-04-08T16:57:33.878Z,21.941,268,,,,,2.119944,-0.916732,171.428972,13.349917,-4.640958,-10.714311,39.0187436,-104.8934933,2160.48,0.301,-0.01,0.26,-0.66,171.27,-0.044,0.121,39.0187435,-104.8934942,2161.08,0.28,,29,,,,0.26,,0.66,,-0.411879,-0.725692,-10.699055,0.233,-0.081,-0.186,-197.0,-45.0,448.0,15.249,12.09,3.0,99.0,22.75,,,,,,,,,,,,,,,,,,,,,2026-04-01 14:44:22,True,34.78,10.882,380.306,184.36
2026-04-08T16:57:33.951Z,2026-04-08T16:57:33.951Z,22.014,269,,,,,3.323155,0.114592,169.939282,6.875494,0.458366,-12.204001,39.0187435,-104.8934929,2160.58,0.406,-0.05,0.24,-0.79,169.78,-0.056,0.156,39.0187435,-104.8934937,2161.22,0.15,,29,,,,0.245,,0.79,,-0.078453,-0.627626,-10.532342,0.12,0.008,-0.213,-197.0,-38.0,449.0,15.29,11.57,4.0,99.0,22.75,,,,,,,,,,,,,,,,,,,,,2026-04-01 14:44:22,True,34.773,10.885,380.389,176.905
2026-04-08T16:57:34.023Z,2026-04-08T16:57:34.023Z,22.086,270,,,,,3.265859,0.458366,169.079845,-1.718873,7.33386,-12.261297,39.0187435,-104.8934927,2160.65,0.474,-0.04,0.22,-0.84,168.93,-0.056,0.173,39.0187435,-104.8934937,2161.22,0.15,,29,,,,0.224,,0.84,,0.08826,-0.617819,-10.748088,-0.029,0.128,-0.214,-202.0,-38.0,446.0,15.29,11.57,4.0,99.0,22.75,,,,,,,,,,,,,,,,,,,,,2026-04-01 14:44:22,True,34.795,10.892,379.81,176.905
2026-04-08T16:57:34.094Z,2026-04-08T16:57:34.094Z,22.157,271,,,,,3.896113,1.145916,168.220409,12.662367,8.307888,-9.854874,39.0187434,-104.8934926,2160.72,0.549,-0.06,0.2,-0.93,168.14,-0.067,0.181,39.0187435,-104.8934937,2161.22,0.15,,29,,,,0.209,,0.93,,-0.107873,-0.480526,-10.434276,0.221,0.144,-0.172,-206.0,-40.0,445.0,15.29,11.57,4.0,99.0,22.75,,,,,,,,,,,,,,,,,,,,,2026-04-01 14:44:22,True,34.795,10.892,379.975,176.905
2026-04-08T16:57:34.165Z,2026-04-08T16:57:34.165Z,22.228,272,,,,,4.239888,1.48969,167.647451,1.203211,1.031324,-8.193296,39.0187434,-104.8934925,2160.8,0.628,-0.06,0.16,-1.0,167.59,-0.067,0.19,39.0187434,-104.8934933,2161.37,0.23,,29,,,,0.171,,1.0,,-0.186326,-1.225831,-10.630409,0.021,0.018,-0.143,-206.0,-40.0,445.0,15.295,12.53,4.0,99.0,22.75,,,,,,,,,,,,,,,,,,,,,2026-04-01 14:44:22,True,34.795,10.885,380.223,191.646
2026-04-08T16:57:34.239Z,2026-04-08T16:57:34.239Z,22.302,273,,,,,4.010705,1.661578,167.360972,-5.958761,3.724226,-5.672282,39.0187434,-104.8934924,2160.86,0.685,-0.04,0.14,-1.04,167.3,-0.067,0.199,39.0187434,-104.8934933,2161.37,0.23,,29,,,,0.146,,1.04,,-0.23536,-0.598206,-10.483309,-0.103,0.064,-0.099,-210.0,-37.0,442.0,15.295,12.53,4.0,99.0,22.75,,,,,,,,,,,,,,,,,,,,,2026-04-01 14:44:22,True,34.773,10.892,380.141,191.646
2026-04-08T16:57:34.310Z,2026-04-08T16:57:34.310Z,22.373,274,,,,,3.66693,1.948057,167.131789,-0.515662,2.979381,-0.40107,39.0187433,-104.8934923,2160.97,0.798,-0.03,0.09,-1.12,167.15,-0.078,0.207,39.0187433,-104.8934929,2161.61,0.24,,29,,,,0.095,,1.12,,-0.17652,-0.784532,-10.855962,-0.009,0.051,-0.007,-212.0,-42.0,441.0,15.295,12.53,4.0,99.0,22.75,,,,,,,,,,,,,,,,,,,,,2026-04-01 14:44:23,True,34.795,10.887,380.306,191.646
2026-04-08T16:57:34.379Z,2026-04-08T16:57:34.379Z,22.442,275,,,,,3.609634,2.005352,167.303676,-5.099324,-3.380451,3.552338,39.0187433,-104.8934922,2161.07,0.897,0.0,0.12,-1.18,167.33,-0.078,0.216,39.0187433,-104.8934929,2161.61,0.24,,29,,,,0.12,,1.18,,0.02942,-0.696272,-10.885382,-0.088,-0.059,0.062,-212.0,-42.0,441.0,15.285,11.97,5.0,99.0,22.75,,,,,,,,,,,,,,,,,,,,,2026-04-01 14:44:23,True,34.811,10.896,379.975,182.961
2026-04-08T16:57:34.483Z,2026-04-08T16:57:34.483Z,22.546,276,,,,,3.208564,1.833465,167.418268,-10.198649,-5.729578,3.838817,39.0187433,-104.8934922,2161.13,0.956,0.0,0.09,-1.22,167.47,-0.078,0.216,39.0187433,-104.8934929,2161.61,0.24,,29,,,,0.09,,1.22,,-0.17652,-1.039505,-10.904995,-0.177,-0.1,0.066,-214.0,-45.0,439.0,15.285,11.97,5.0,99.0,22.75,,,,,,,,,,,,,,,,,,,,,2026-04-01 14:44:23,True,34.742,10.885,380.058,182.961
2026-04-08T16:57:34.554Z,2026-04-08T16:57:34.554Z,22.617,277,,,,,3.265859,1.260507,167.991226,3.208564,-2.807493,3.093972,39.0187433,-104.8934921,2161.35,1.172,0.03,0.09,-1.37,167.98,-0.078,0.225,39.0187432,-104.8934926,2161.85,0.08,,29,,,,0.095,,1.37,,0.039227,-0.843372,-10.532342,0.056,-0.049,0.053,-211.0,-48.0,441.0,15.321,10.99,6.0,99.0,22.75,,,,,,,,,,,,,,,,,,,,,2026-04-01 14:44:23,True,34.758,10.892,379.892,168.378
2026-04-08T16:57:34.628Z,2026-04-08T16:57:34.628Z,22.691,278,,,,,3.265859,1.203211,168.048521,2.17724,-3.036676,1.317803,39.0187434,-104.893492,2161.45,1.275,0.04,0.06,-1.42,168.06,-0.067,0.233,39.0187432,-104.8934926,2161.85,0.08,,29,,,,0.072,,1.42,,-0.245166,-0.892405,-10.640215,0.038,-0.053,0.023,-209.0,-46.0,443.0,15.321,10.99,6.0,99.0,23.0,,,,,,,,,,,,,,,,,,,,,2026-04-01 14:44:23,True,34.795,10.887,380.058,168.378
2026-04-08T16:57:34.702Z,2026-04-08T16:57:34.702Z,22.765,279,,,,,3.838817,0.687549,168.048521,6.531719,-8.250592,0.515662,39.0187434,-104.893492,2161.59,1.412,0.06,0.08,-1.45,168.06,-0.067,0.233,39.0187432,-104.8934926,2162.15,0.06,,29,,,,0.1,,1.45,,0.02942,-0.608012,-10.228336,0.114,-0.144,0.008,-207.0,-43.0,444.0,15.321,10.99,6.0,99.0,23.0,,,,,,,,,,,,,,,,,,,,,2026-04-01 14:44:23,True,34.803,10.88,380.306,168.378
2026-04-08T16:57:34.770Z,2026-04-08T16:57:34.770Z,22.833,280,,,,,4.297183,0.229183,167.991226,2.864789,-3.151268,-1.145916,39.0187435,-104.893492,2161.74,1.568,0.07,0.08,-1.51,167.95,-0.056,0.233,39.0187432,-104.8934926,2162.15,0.06,,29,,,,0.106,,1.51,,-0.245166,-0.872792,-10.875575,0.049,-0.054,-0.02,-207.0,-43.0,444.0,15.231,12.05,6.0,99.0,23.0,,,,,,,,,,,,,,,,,,,,,2026-04-01 14:44:23,True,34.773,10.894,380.14,183.534
2026-04-08T16:57:34.846Z,2026-04-08T16:57:34.846Z,22.909,281,,,,,4.354479,0.171887,167.876634,0.744845,-0.572958,-2.57831,39.0187435,-104.893492,2161.82,1.649,0.05,0.05,-1.57,167.82,-0.056,0.233,39.0187432,-104.8934926,2162.15,0.06,,29,,,,0.071,,1.57,,-0.137293,-0.892405,-10.679442,0.013,-0.01,-0.045,-201.0,-38.0,447.0,15.231,12.05,6.0,99.0,22.75,,,,,,,,,,,,,,,,,,,,,2026-04-01 14:44:23,True,34.773,10.887,379.975,183.534
2026-04-08T16:57:34.918Z,2026-04-08T16:57:34.918Z,22.981,282,,,,,4.984733,-0.515662,167.303676,7.73493,-9.396508,-5.786874,39.0187435,-104.8934919,2162.03,1.855,0.01,0.03,-1.65,167.2,-0.056,0.242,39.0187433,-104.8934924,2162.42,0.16,,29,,,,0.032,,1.65,,-0.019613,-1.088538,-10.179303,0.134,-0.164,-0.101,-198.0,-37.0,449.0,15.231,12.05,6.0,99.0,22.75,,,,,,,,,,,,,,,,,,,,,2026-04-01 14:44:23,True,34.818,10.896,380.223,183.534
2026-04-08T16:57:34.991Z,2026-04-08T16:57:34.991Z,23.054,283,,,,,4.984733,-0.687549,166.902606,-1.317803,-0.687549,-4.010705,39.0187435,-104.8934919,2162.17,1.994,0.0,0.01,-1.68,166.88,-0.056,0.242,39.0187433,-104.8934924,2162.42,0.16,,29,,,,0.01,,1.68,,0.362846,-0.323619,-10.561762,-0.022,-0.012,-0.069,-198.0,-37.0,449.0,15.298,11.21,7.0,99.0,22.75,,,,,,,,,,,,,,,,,,,,,2026-04-01 14:44:23,True,34.78,10.901,379.727,171.491
2026-04-08T16:57:35.070Z,2026-04-08T16:57:35.070Z,23.133,284,,,,,4.984733,-0.687549,166.84531,2.57831,-1.260507,-1.833465,39.0187435,-104.8934919,2162.24,2.062,-0.03,0.0,-1.71,166.84,-0.056,0.242,39.0187433,-104.8934924,2162.42,0.16,,29,,,,0.03,,1.71,,0.08826,-0.696272,-10.130269,0.044,-0.021,-0.032,-193.0,-35.0,451.0,15.298,11.21,7.0,99.0,22.75,,,,,,,,,,,,,,,,,,,,,2026-04-01 14:44:23,True,34.765,10.889,380.14,171.491
2026-04-08T16:57:35.144Z,2026-04-08T16:57:35.144Z,23.207,285,,,,,4.812845,-0.229183,167.360972,-4.469071,5.500395,6.302536,39.0187435,-104.8934919,2162.48,2.309,-0.08,-0.01,-1.79,167.4,-0.056,0.242,39.0187434,-104.8934923,2162.78,0.03,,29,,,,0.081,,1.79,,0.431493,-0.411879,-10.669635,-0.077,0.096,0.109,-193.0,-35.0,450.0,15.237,11.65,8.0,99.0,22.75,,,,,,,,,,,,,,,,,,,,,2026-04-01 14:44:23,True,34.788,10.885,380.141,177.511
2026-04-08T16:57:35.217Z,2026-04-08T16:57:35.217Z,23.28,286,,,,,4.984733,0.114592,167.762042,7.448451,5.729578,4.75555,39.0187434,-104.8934919,2162.66,2.485,-0.11,-0.05,-1.83,167.85,-0.067,0.242,39.0187434,-104.8934923,2162.78,0.03,,29,,,,0.121,,1.83,,0.0,-0.676659,-10.296982,0.129,0.1,0.082,-197.0,-36.0,448.0,15.237,11.65,8.0,99.0,22.75,,,,,,,,,,,,,,,,,,,,,2026-04-01 14:44:23,True,34.773,10.892,379.727,177.511
2026-04-08T16:57:35.291Z,2026-04-08T16:57:35.291Z,23.354,287,,,,,5.385803,0.572958,168.220409,4.068,3.724226,5.443099,39.0187433,-104.893492,2162.8,2.627,-0.14,-0.07,-1.86,168.25,-0.078,0.233,39.0187434,-104.8934923,2162.78,0.03,,29,,,,0.157,,1.86,,0.647239,-0.343233,-10.218529,0.07,0.064,0.094,-197.0,-36.0,448.0,15.237,11.65,8.0,99.0,22.75,,,,,,,,,,,,,,,,,,,,,2026-04-01 14:44:24,True,34.78,10.887,380.223,177.511
2026-04-08T16:57:35.360Z,2026-04-08T16:57:35.360Z,23.423,288,,,,,4.927437,0.916732,168.564183,-6.932789,6.990085,3.265859,39.0187432,-104.893492,2162.98,2.805,-0.15,-0.09,-1.91,168.61,-0.089,0.233,39.0187433,-104.8934925,2163.14,0.08,,29,,,,0.175,,1.91,,0.039227,-1.000278,-10.414662,-0.12,0.122,0.056,-201.0,-30.0,446.0,15.093,13.49,8.0,99.0,22.75,,,,,,,,,,,,,,,,,,,,,2026-04-01 14:44:24,True,34.78,10.894,380.306,203.605
2026-04-08T16:57:35.435Z,2026-04-08T16:57:35.435Z,23.498,289,,,,,4.75555,1.375099,168.736071,-3.036676,9.281916,2.349127,39.0187431,-104.8934921,2163.09,2.912,-0.18,-0.11,-1.95,168.78,-0.1,0.225,39.0187433,-104.8934925,2163.14,0.08,,29,,,,0.211,,1.95,,0.1471,-0.637432,-10.699055,-0.053,0.161,0.04,-204.0,-30.0,444.0,15.093,13.49,8.0,99.0,23.0,,,,,,,,,,,,,,,,,,,,,2026-04-01 14:44:24,True,34.765,10.877,380.223,203.605
2026-04-08T16:57:35.516Z,2026-04-08T16:57:35.516Z,23.579,290,,,,,4.469071,1.890761,167.360972,-6.016057,8.307888,2.119944,39.018743,-104.8934923,2163.28,3.106,-0.16,-0.16,-2.02,167.37,-0.111,0.207,39.0187431,-104.8934927,2163.53,0.13,,29,,,,0.226,,2.02,,0.166713,-0.715885,-10.679442,-0.105,0.144,0.036,-210.0,-32.0,441.0,15.093,13.49,8.0,99.0,23.0,,,,,,,,,,,,,,,,,,,,,2026-04-01 14:44:24,True,34.78,10.885,379.81,203.605
2026-04-08T16:57:35.584Z,2026-04-08T16:57:35.584Z,23.647,291,,,,,4.010705,2.750197,167.418268,-6.24524,7.906818,0.40107,39.0187429,-104.8934924,2163.46,3.285,-0.16,-0.2,-2.09,167.42,-0.122,0.199,39.0187431,-104.8934927,2163.53,0.13,,29,,,,0.256,,2.09,,0.009807,-0.500139,-10.650022,-0.109,0.138,0.006,-210.0,-32.0,441.0,15.139,14.05,9.0,99.0,22.75,,,,,,,,,,,,,,,,,,,,,2026-04-01 14:44:24,True,34.795,10.896,380.802,212.703
2026-04-08T16:57:35.664Z,2026-04-08T16:57:35.664Z,23.727,292,,,,,3.781521,2.979381,167.360972,-7.906818,7.391156,-1.203211,39.0187428,-104.8934925,2163.53,3.358,-0.15,-0.19,-2.13,167.34,-0.133,0.19,39.0187431,-104.8934927,2163.53,0.13,,29,,,,0.242,,2.13,,0.039227,-0.362846,-10.630409,-0.137,0.129,-0.021,-218.0,-35.0,437.0,15.139,14.05,9.0,99.0,22.75,,,,,,,,,,,,,,,,,,,,,2026-04-01 14:44:24,True,34.78,10.882,380.223,212.703
2026-04-08T16:57:35.736Z,2026-04-08T16:57:35.736Z,23.799,293,,,,,2.062648,3.66693,166.788014,-11.459156,3.151268,-4.411775,39.0187427,-104.8934929,2163.8,3.629,-0.09,-0.2,-2.22,166.72,-0.145,0.156,39.0187428,-104.8934932,2163.97,0.31,,29,,,,0.219,,2.22,,0.304006,-0.588399,-10.669635,-0.2,0.054,-0.077,-224.0,-43.0,433.0,15.139,14.05,9.0,99.0,22.75,,,,,,,,,,,,,,,,,,,,,2026-04-01 14:44:24,True,34.773,10.885,379.892,212.703
2026-04-08T16:57:35.818Z,2026-04-08T16:57:35.818Z,23.881,294,,,,,1.546986,3.724226,166.329648,-5.958761,-3.265859,-4.125296,39.0187427,-104.8934931,2163.97,3.792,-0.07,-0.2,-2.28,166.26,-0.145,0.138,39.0187428,-104.8934932,2163.97,0.31,,29,,,,0.212,,2.28,,-0.156906,-1.117958,-10.169496,-0.103,-0.057,-0.072,-230.0,-54.0,433.0,15.139,14.05,9.0,99.0,23.0,,,,,,,,,,,,,,,,,,,,,2026-04-01 14:44:24,True,34.803,10.882,380.306,212.703
2026-04-08T16:57:35.892Z,2026-04-08T16:57:35.892Z,23.955,295,,,,,1.48969,3.495043,165.871282,7.73493,-4.068,-2.291831,39.0187426,-104.8934933,2164.15,3.975,0.0,-0.17,-2.28,165.84,-0.156,0.121,39.0187428,-104.8934932,2163.97,0.31,,29,,,,0.17,,2.28,,-0.23536,-0.872792,-9.669357,0.135,-0.071,-0.04,-230.0,-54.0,433.0,15.139,14.05,9.0,99.0,23.0,,,,,,,,,,,,,,,,,,,,,2026-04-01 14:44:24,True,34.788,10.894,380.471,212.703
2026-04-08T16:57:35.957Z,2026-04-08T16:57:35.957Z,24.02,296,,,,,2.005352,3.208564,165.642099,2.635606,-4.927437,-0.974028,39.0187427,-104.8934935,2164.34,4.164,0.03,-0.17,-2.26,165.61,-0.145,0.104,39.0187426,-104.8934938,2164.42,0.15,,29,,,,0.173,,2.26,,-0.068647,-1.206218,-9.502644,0.046,-0.086,-0.016,-226.0,-59.0,433.0,15.223,12.46,10.0,99.0,22.75,,,,,,,,,,,,,,,,,,,,,2026-04-01 14:44:24,True,34.78,10.896,380.141,189.679
2026-04-08T16:57:36.026Z,2026-04-08T16:57:36.026Z,24.089,297,,,,,2.005352,2.979381,165.527507,1.890761,-7.563043,-0.916732,39.0187427,-104.8934936,2164.45,4.277,0.04,-0.18,-2.28,165.5,-0.145,0.095,39.0187426,-104.8934938,2164.42,0.15,,29,,,,0.184,,2.28,,-0.166713,-1.049312,-9.904716,0.033,-0.132,-0.016,-222.0,-56.0,434.0,15.223,12.46,10.0,99.0,22.75,,,,,,,,,,,,,,,,,,,,,2026-04-01 14:44:24,True,34.795,10.894,380.058,189.679
2026-04-08T16:57:36.101Z,2026-04-08T16:57:36.101Z,24.164,298,,,,,2.005352,2.062648,165.470211,-4.469071,-14.152058,1.833465,39.0187428,-104.8934938,2164.63,4.455,0.08,-0.13,-2.32,165.49,-0.133,0.078,39.0187426,-104.8934938,2164.42,0.15,,29,,,,0.153,,2.32,,0.500139,-0.647239,-10.610795,-0.078,-0.247,0.031,-215.0,-56.0,437.0,15.223,12.46,10.0,99.0,22.75,,,,,,,,,,,,,,,,,,,,,2026-04-01 14:44:24,True,34.773,10.885,380.554,189.679
