time_utc,time_gps_utc,elapsed_s,sample_n,armed,flight_mode,mission_seq,wp_dist_m,roll_deg,pitch_deg,yaw_deg,roll_rate_deg_s,pitch_rate_deg_s,yaw_rate_deg_s,lat_deg,lon_deg,alt_msl_m,alt_rel_m,vel_n_m_s,vel_e_m_s,vel_d_m_s,heading_deg,north_m,east_m,gps_lat_deg,gps_lon_deg,gps_alt_m,gps_speed_m_s,gps_course_deg,gps_sats,gps_fix_type,gps_hdop,gps_vdop,groundspeed_m_s,airspeed_m_s,climb_m_s,throttle_pct,acc_x_m_s2,acc_y_m_s2,acc_z_m_s2,gyro_x_rad_s,gyro_y_rad_s,gyro_z_rad_s,mag_x_mgauss,mag_y_mgauss,mag_z_mgauss,batt_voltage_v,batt_current_a,batt_consumed_mah,batt_remaining_pct,batt_temp_c,motor1_us,motor2_us,motor3_us,motor4_us,vib_x_m_s2,vib_y_m_s2,vib_z_m_s2,clip_0,clip_1,clip_2,ekf_flags,ekf_vel_var,ekf_pos_horiz_var,ekf_pos_vert_var,ekf_compass_var,baro_press_hpa,baro_temp_c,ap_wind_dir_deg,ap_wind_speed_m_s,ap_wind_speed_z_m_s,Sched_UTC,Sched_Error_ms,Cycle_ms,Slots_Skipped,RTC_UTC,RTC_Temp_C,RTC_Age_ms,Temp_Age_ms,HB_Armed,HB_CustomMode,HB_BaseMode,HB_SystemStatus,HB_rx_UTC,HB_Age_ms,ATT_rx_UTC,ATT_Age_ms,IMU_rx_UTC,IMU_Age_ms,RIMU_Xacc,RIMU_Yacc,RIMU_Zacc,RIMU_Xgyro,RIMU_Ygyro,RIMU_Zgyro,RIMU_rx_UTC,RIMU_Age_ms,GPS_rx_UTC,GPS_Age_ms,POS_rx_UTC,POS_Age_ms,SYST_UnixUsec,SYST_BootMs,SYST_rx_UTC,SYST_Age_ms,BAT_Cell2_V,BAT_Cell3_V,BAT_Cell4_V,BAT_Energy_hJ,BAT_Temp_cdegC,BAT_TimeRemaining_s,BAT_ChargeState,BAT_rx_UTC,BAT_Age_ms,SYS_Voltage_V,SYS_Current_A,SYS_BatteryRemaining_pct,SYS_Load_pct,SYS_DropRateComm,SYS_ErrorsComm,SYS_SensorsHealth,SYS_rx_UTC,SYS_Age_ms,PWR_Vcc_V,PWR_Vservo_V,PWR_Flags,PWR_rx_UTC,PWR_Age_ms,ESC1_RPM,ESC2_RPM,ESC3_RPM,ESC4_RPM,ESC1_V,ESC2_V,ESC3_V,ESC4_V,ESC1_A,ESC2_A,ESC3_A,ESC4_A,ESC1_degC,ESC2_degC,ESC3_degC,ESC4_degC,ESC_rx_UTC,ESC_Age_ms,VFR_Heading_deg,VFR_Alt_m,VFR_rx_UTC,VFR_Age_ms,SRV5_us,SRV6_us,SRV7_us,SRV8_us,SRV_rx_UTC,SRV_Age_ms,RC1_us,RC2_us,RC3_us,RC4_us,RC_RSSI,RC_rx_UTC,RC_Age_ms,NAV_RollTarget_deg,NAV_PitchTarget_deg,NAV_AltError_m,NAV_AspdError_m_s,NAV_XtrackError_m,NAV_rx_UTC,NAV_Age_ms,MIS_rx_UTC,MIS_Age_ms,VIB_rx_UTC,VIB_Age_ms,EKF_rx_UTC,EKF_Age_ms,BARO_rx_UTC,BARO_Age_ms,WND_rx_UTC,WND_Age_ms
2026-09-25T17:01:08.524Z,2026-09-25T17:01:10.590Z,0.0,0,False,,0,0,-0.871469,0.549467,-172.565721,0.044691,-0.010886,-0.017762,39.0187654,-104.8934866,2166.44,0.343,0.0,0.0,-0.01,187.44,-0.011,-0.009,39.0187654,-104.8934866,2166.44,0.0,45.0,32,6,0.66,1.19,0.002,0.006,0.019,0,0.0,-0.02942,-9.787037,0.0,0.0,0.0,-216,0,454,16.506,0.01,0,99,19.0,1000,1000,1000,1000,0.022,0.022,0.022,0,0,0,167,0.0,0.0007,0.0012,0.0106,790.851,41.37,,,,2026-09-25T17:01:08.473Z,0.04,52.332,0,2026-04-01 14:44:00,17.25,-50.1,-50.9,,,,,,,2026-09-25T17:01:08.517Z,6.9,2026-09-25T17:01:08.517Z,6.2,-2,-2,-1001,0,0,0,2026-09-25T17:01:08.513Z,10.6,2026-09-25T17:01:08.515Z,8.7,2026-09-25T17:01:08.512Z,11.9,1790355670398464,140400,2026-09-25T17:01:08.488Z,35.8,,,,0,,,1,2026-09-25T17:01:08.514Z,10.1,16.506,0.01,99,27.4,0.0,0,1198627887,2026-09-25T17:01:08.514Z,9.8,5.225,0.019,1,2026-09-25T17:01:08.484Z,39.3,,,,,,,,,,,,,,,,,,,187,2166.44,2026-09-25T17:01:08.512Z,11.6,0,1500,0,0,2026-09-25T17:01:08.513Z,11.0,1507,1511,1528,1493,255,2026-09-25T17:01:08.515Z,9.0,1.12,-0.39,0.0,0.0,0.0,2026-09-25T17:01:08.514Z,9.4,2026-09-25T17:01:08.494Z,29.3,2026-09-25T17:01:08.505Z,18.3,2026-09-25T17:01:08.505Z,18.6,2026-09-25T17:01:08.504Z,19.9,,
2026-09-25T17:01:08.526Z,2026-09-25T17:01:10.592Z,0.05,1,False,,0,0,-0.871469,0.549467,-172.565721,0.044691,-0.010886,-0.017762,39.0187654,-104.8934866,2166.44,0.343,0.0,0.0,-0.01,187.44,-0.011,-0.009,39.0187654,-104.8934866,2166.44,0.0,45.0,32,6,0.66,1.19,0.002,0.006,0.019,0,0.0,-0.02942,-9.787037,0.0,0.0,0.0,-216,0,454,16.506,0.01,0,99,19.0,1000,1000,1000,1000,0.022,0.022,0.022,0,0,0,167,0.0,0.0007,0.0012,0.0106,790.851,41.37,,,,2026-09-25T17:01:08.523Z,3.095,1.942,0,2026-04-01 14:44:00,17.25,2.9,2.1,,,,,,,2026-09-25T17:01:08.517Z,9.8,2026-09-25T17:01:08.517Z,9.1,-2,-2,-1001,0,0,0,2026-09-25T17:01:08.513Z,13.4,2026-09-25T17:01:08.515Z,11.5,2026-09-25T17:01:08.512Z,14.7,1790355670398464,140400,2026-09-25T17:01:08.488Z,38.6,,,,0,,,1,2026-09-25T17:01:08.514Z,12.9,16.506,0.01,99,27.4,0.0,0,1198627887,2026-09-25T17:01:08.514Z,12.6,5.225,0.019,1,2026-09-25T17:01:08.484Z,42.1,,,,,,,,,,,,,,,,,,,187,2166.44,2026-09-25T17:01:08.512Z,14.4,0,1500,0,0,2026-09-25T17:01:08.513Z,13.9,1507,1511,1528,1493,255,2026-09-25T17:01:08.515Z,11.9,1.12,-0.39,0.0,0.0,0.0,2026-09-25T17:01:08.514Z,12.3,2026-09-25T17:01:08.494Z,32.1,2026-09-25T17:01:08.505Z,21.1,2026-09-25T17:01:08.505Z,21.5,2026-09-25T17:01:08.504Z,22.8,,
2026-09-25T17:01:08.577Z,2026-09-25T17:01:10.643Z,0.1,2,False,,0,0,-0.871469,0.549467,-172.567439,-0.016043,0.00573,-0.006303,39.0187654,-104.8934866,2166.44,0.343,0.0,0.0,-0.01,187.44,-0.011,-0.009,39.0187654,-104.8934866,2166.44,0.0,45.0,32,6,0.66,1.19,0.002,0.006,0.019,0,0.0,-0.02942,-9.787037,0.0,0.0,0.0,-216,-1,454,16.506,0.01,0,99,19.0,1000,1000,1000,1000,0.022,0.022,0.022,0,0,0,167,0.0,0.0007,0.0012,0.0106,790.851,41.37,,,,2026-09-25T17:01:08.573Z,0.002,5.186,0,2026-04-01 14:44:00,17.25,49.8,49.0,,,,,,,2026-09-25T17:01:08.574Z,2.9,2026-09-25T17:01:08.574Z,2.3,-2,-2,-1001,0,0,0,2026-09-25T17:01:08.513Z,63.5,2026-09-25T17:01:08.515Z,61.6,2026-09-25T17:01:08.512Z,64.9,1790355670398464,140400,2026-09-25T17:01:08.488Z,88.7,,,,0,,,1,2026-09-25T17:01:08.514Z,63.1,16.506,0.01,99,27.4,0.0,0,1198627887,2026-09-25T17:01:08.514Z,62.7,5.225,0.019,1,2026-09-25T17:01:08.484Z,92.2,,,,,,,,,,,,,,,,,,,187,2166.44,2026-09-25T17:01:08.512Z,64.5,0,1500,0,0,2026-09-25T17:01:08.513Z,64.0,1507,1511,1528,1493,255,2026-09-25T17:01:08.515Z,62.0,1.12,-0.39,0.0,0.0,0.0,2026-09-25T17:01:08.514Z,62.4,2026-09-25T17:01:08.494Z,82.2,2026-09-25T17:01:08.505Z,71.3,2026-09-25T17:01:08.505Z,71.6,2026-09-25T17:01:08.504Z,72.9,,
2026-09-25T17:01:08.628Z,2026-09-25T17:01:10.694Z,0.15,3,False,,0,0,-0.870896,0.550039,-172.570304,0.005157,0.001146,0.026356,39.0187654,-104.8934866,2166.44,0.344,0.0,0.0,-0.01,187.44,-0.011,-0.009,39.0187654,-104.8934866,2166.44,0.0,45.0,32,6,0.66,1.19,0.002,0.006,0.018,0,0.009807,-0.02942,-9.787037,0.001,0.0,0.0,-216,-1,454,16.504,0.0,0,99,19.0,1000,1000,1000,1000,0.022,0.022,0.022,0,0,0,167,0.0,0.0007,0.0012,0.0106,790.851,41.37,,,,2026-09-25T17:01:08.623Z,0.002,7.159,0,2026-04-01 14:44:00,17.25,99.8,99.0,,,,,,,2026-09-25T17:01:08.626Z,2.9,2026-09-25T17:01:08.626Z,2.3,-1,-3,-1000,0,0,0,2026-09-25T17:01:08.624Z,4.4,2026-09-25T17:01:08.515Z,113.6,2026-09-25T17:01:08.623Z,5.6,1790355670398464,140400,2026-09-25T17:01:08.488Z,140.7,,,,0,,,1,2026-09-25T17:01:08.625Z,3.9,16.506,0.01,99,27.4,0.0,0,1198627887,2026-09-25T17:01:08.514Z,114.7,5.225,0.019,1,2026-09-25T17:01:08.484Z,144.2,,,,,,,,,,,,,,,,,,,187,2166.44,2026-09-25T17:01:08.623Z,5.3,0,1500,0,0,2026-09-25T17:01:08.624Z,4.8,1507,1511,1528,1493,255,2026-09-25T17:01:08.515Z,114.0,1.12,-0.39,0.0,0.0,0.0,2026-09-25T17:01:08.514Z,114.4,2026-09-25T17:01:08.494Z,134.2,2026-09-25T17:01:08.505Z,123.2,2026-09-25T17:01:08.505Z,123.5,2026-09-25T17:01:08.504Z,124.9,,
2026-09-25T17:01:08.676Z,2026-09-25T17:01:10.742Z,0.2,4,False,,0,0,-0.871469,0.550039,-172.573169,-0.00974,0.017762,0.013751,39.0187654,-104.8934866,2166.44,0.344,0.0,0.0,-0.01,187.44,-0.011,-0.009,39.0187654,-104.8934866,2166.44,0.0,45.0,32,6,0.66,1.19,0.002,0.006,0.018,0,0.0,-0.019613,-9.787037,0.001,0.0,0.0,-216,0,454,16.504,0.0,0,99,19.0,1000,1000,1000,1000,0.022,0.022,0.022,0,0,0,167,0.0,0.0007,0.0012,0.0106,790.851,41.37,,,,2026-09-25T17:01:08.673Z,0.002,5.136,0,2026-04-01 14:44:00,17.25,149.8,149.0,,,,,,,2026-09-25T17:01:08.674Z,2.8,2026-09-25T17:01:08.674Z,2.2,-1,-3,-1000,0,0,0,2026-09-25T17:01:08.624Z,52.3,2026-09-25T17:01:08.515Z,161.5,2026-09-25T17:01:08.623Z,53.5,1790355670398464,140400,2026-09-25T17:01:08.488Z,188.6,,,,0,,,1,2026-09-25T17:01:08.625Z,51.8,16.506,0.01,99,27.4,0.0,0,1198627887,2026-09-25T17:01:08.514Z,162.6,5.225,0.019,1,2026-09-25T17:01:08.484Z,192.1,,,,,,,,,,,,,,,,,,,187,2166.44,2026-09-25T17:01:08.623Z,53.2,0,1500,0,0,2026-09-25T17:01:08.624Z,52.7,1507,1511,1528,1493,255,2026-09-25T17:01:08.515Z,161.9,1.12,-0.39,0.0,0.0,0.0,2026-09-25T17:01:08.514Z,162.3,2026-09-25T17:01:08.494Z,182.1,2026-09-25T17:01:08.505Z,171.2,2026-09-25T17:01:08.505Z,171.5,2026-09-25T17:01:08.504Z,172.8,,
2026-09-25T17:01:08.730Z,2026-09-25T17:01:10.796Z,0.25,5,False,,0,0,-0.871469,0.552331,-172.578899,-0.00974,0.048701,-0.03094,39.0187655,-104.8934866,2166.44,0.345,0.0,0.0,-0.01,187.43,0.0,-0.009,39.0187655,-104.8934866,2166.44,0.02,357.27,32,6,0.66,1.19,0.002,0.021,0.018,0,0.0,-0.039227,-9.796843,0.001,0.0,0.0,-216,0,454,16.505,0.01,0,99,19.0,1000,1000,1000,1000,0.022,0.022,0.022,0,0,0,167,0.0,0.0007,0.0012,0.0106,790.851,41.37,,,,2026-09-25T17:01:08.723Z,0.002,8.497,0,2026-04-01 14:44:00,17.25,199.8,199.0,,,,,,,2026-09-25T17:01:08.727Z,2.9,2026-09-25T17:01:08.728Z,2.3,-2,-3,-1000,0,0,0,2026-09-25T17:01:08.724Z,5.7,2026-09-25T17:01:08.726Z,3.8,2026-09-25T17:01:08.723Z,6.9,1790355670398464,140400,2026-09-25T17:01:08.488Z,242.0,,,,0,,,1,2026-09-25T17:01:08.725Z,5.2,16.505,0.01,99,26.0,0.0,0,1198627887,2026-09-25T17:01:08.725Z,4.9,5.225,0.019,1,2026-09-25T17:01:08.484Z,245.5,,,,,,,,,,,,,,,,,,,187,2166.44,2026-09-25T17:01:08.723Z,6.6,0,1500,0,0,2026-09-25T17:01:08.724Z,6.1,1507,1511,1528,1493,255,2026-09-25T17:01:08.726Z,4.2,1.12,-0.39,0.0,0.0,0.0,2026-09-25T17:01:08.725Z,4.5,2026-09-25T17:01:08.494Z,235.6,2026-09-25T17:01:08.505Z,224.6,2026-09-25T17:01:08.505Z,224.9,2026-09-25T17:01:08.504Z,226.2,,
2026-09-25T17:01:08.776Z,2026-09-25T17:01:10.842Z,0.3,6,False,,0,0,-0.871469,0.552904,-172.583482,-0.009167,0.017189,-0.01547,39.0187655,-104.8934866,2166.44,0.345,0.0,0.0,-0.01,187.43,0.0,-0.009,39.0187655,-104.8934866,2166.44,0.02,357.27,32,6,0.66,1.19,0.002,0.021,0.018,0,0.009807,-0.02942,-9.787037,0.001,0.0,0.0,-216,-1,454,16.505,0.01,0,99,19.0,1000,1000,1000,1000,0.022,0.022,0.022,0,0,0,167,0.0,0.0007,0.0012,0.0106,790.851,41.37,,,,2026-09-25T17:01:08.773Z,0.002,5.158,0,2026-04-01 14:44:00,17.25,249.8,249.0,,,,,,,2026-09-25T17:01:08.774Z,2.9,2026-09-25T17:01:08.774Z,2.3,-2,-3,-1000,0,0,0,2026-09-25T17:01:08.724Z,52.3,2026-09-25T17:01:08.726Z,50.5,2026-09-25T17:01:08.723Z,53.6,1790355670398464,140400,2026-09-25T17:01:08.488Z,288.7,,,,0,,,1,2026-09-25T17:01:08.725Z,51.8,16.505,0.01,99,26.0,0.0,0,1198627887,2026-09-25T17:01:08.725Z,51.5,5.225,0.019,1,2026-09-25T17:01:08.484Z,292.2,,,,,,,,,,,,,,,,,,,187,2166.44,2026-09-25T17:01:08.723Z,53.2,0,1500,0,0,2026-09-25T17:01:08.724Z,52.7,1507,1511,1528,1493,255,2026-09-25T17:01:08.726Z,50.8,1.12,-0.39,0.0,0.0,0.0,2026-09-25T17:01:08.725Z,51.2,2026-09-25T17:01:08.494Z,282.2,2026-09-25T17:01:08.505Z,271.2,2026-09-25T17:01:08.505Z,271.5,2026-09-25T17:01:08.504Z,272.8,,
2026-09-25T17:01:08.828Z,2026-09-25T17:01:10.894Z,0.35,7,False,,0,0,-0.871469,0.552904,-172.589785,-0.007448,0.017189,-0.013751,39.0187655,-104.8934866,2166.44,0.344,0.0,0.0,-0.01,187.42,0.0,-0.009,39.0187655,-104.8934866,2166.44,0.02,357.27,32,6,0.66,1.19,0.002,0.021,0.017,0,0.0,-0.02942,-9.787037,0.0,0.0,0.0,-216,-1,454,16.52,0.01,0,99,19.0,1000,1000,1000,1000,0.022,0.022,0.022,0,0,0,167,0.0,0.0007,0.0012,0.0106,790.851,41.37,,,,2026-09-25T17:01:08.823Z,0.002,7.134,0,2026-04-01 14:44:00,17.25,299.8,299.0,,,,,,,2026-09-25T17:01:08.826Z,2.8,2026-09-25T17:01:08.826Z,2.2,-1,-3,-1000,0,0,0,2026-09-25T17:01:08.824Z,4.3,2026-09-25T17:01:08.726Z,102.4,2026-09-25T17:01:08.823Z,5.5,1790355670398464,140400,2026-09-25T17:01:08.488Z,340.6,,,,0,,,1,2026-09-25T17:01:08.825Z,3.8,16.505,0.01,99,26.0,0.0,0,1198627887,2026-09-25T17:01:08.725Z,103.4,5.225,0.019,1,2026-09-25T17:01:08.484Z,344.1,,,,,,,,,,,,,,,,,,,187,2166.44,2026-09-25T17:01:08.823Z,5.2,0,1500,0,0,2026-09-25T17:01:08.824Z,4.7,1507,1511,1528,1493,255,2026-09-25T17:01:08.726Z,102.8,1.12,-0.39,0.0,0.0,0.0,2026-09-25T17:01:08.725Z,103.1,2026-09-25T17:01:08.494Z,334.1,2026-09-25T17:01:08.505Z,323.2,2026-09-25T17:01:08.505Z,323.5,2026-09-25T17:01:08.504Z,324.8,,
2026-09-25T17:01:08.877Z,2026-09-25T17:01:10.943Z,0.4,8,False,,0,0,-0.872042,0.552904,-172.595514,-0.026929,0.020054,-0.032086,39.0187655,-104.8934866,2166.44,0.344,0.0,0.0,-0.01,187.42,0.0,-0.009,39.0187655,-104.8934866,2166.44,0.02,357.27,32,6,0.66,1.19,0.002,0.021,0.017,0,0.009807,-0.02942,-9.787037,0.0,0.0,0.0,-216,-1,454,16.52,0.01,0,99,19.0,1000,1000,1000,1000,0.022,0.022,0.022,0,0,0,167,0.0,0.0007,0.0012,0.0106,790.851,41.37,,,,2026-09-25T17:01:08.873Z,0.002,5.211,0,2026-04-01 14:44:00,17.25,349.8,349.0,,,,,,,2026-09-25T17:01:08.874Z,2.9,2026-09-25T17:01:08.874Z,2.3,-1,-3,-1000,0,0,0,2026-09-25T17:01:08.824Z,52.4,2026-09-25T17:01:08.726Z,150.5,2026-09-25T17:01:08.823Z,53.6,1790355670398464,140400,2026-09-25T17:01:08.488Z,388.8,,,,0,,,1,2026-09-25T17:01:08.825Z,51.9,16.505,0.01,99,26.0,0.0,0,1198627887,2026-09-25T17:01:08.725Z,151.6,5.225,0.019,1,2026-09-25T17:01:08.484Z,392.3,,,,,,,,,,,,,,,,,,,187,2166.44,2026-09-25T17:01:08.823Z,53.3,0,1500,0,0,2026-09-25T17:01:08.824Z,52.8,1507,1511,1528,1493,255,2026-09-25T17:01:08.726Z,150.9,1.12,-0.39,0.0,0.0,0.0,2026-09-25T17:01:08.725Z,151.2,2026-09-25T17:01:08.494Z,382.3,2026-09-25T17:01:08.505Z,371.3,2026-09-25T17:01:08.505Z,371.6,2026-09-25T17:01:08.504Z,372.9,,
2026-09-25T17:01:08.931Z,2026-09-25T17:01:10.997Z,0.45,9,False,,0,0,-0.873188,0.55405,-172.600671,-0.023491,0.020626,-0.017189,39.0187655,-104.8934866,2166.44,0.344,0.0,0.0,-0.01,187.41,0.0,-0.009,39.0187655,-104.8934866,2166.44,0.01,180.0,32,6,0.66,1.19,0.002,0.014,0.017,0,0.009807,-0.02942,-9.787037,0.0,0.0,0.0,-216,-1,454,16.517,0.01,0,99,19.0,1000,1000,1000,1000,0.021,0.021,0.022,0,0,0,167,0.0,0.0007,0.017,0.0055,790.834,41.41,,,,2026-09-25T17:01:08.923Z,0.002,9.531,0,2026-04-01 14:44:00,17.25,399.8,399.0,,,,,,,2026-09-25T17:01:08.927Z,3.9,2026-09-25T17:01:08.928Z,3.2,-1,-3,-1000,0,0,0,2026-09-25T17:01:08.924Z,6.7,2026-09-25T17:01:08.926Z,4.8,2026-09-25T17:01:08.923Z,7.9,1790355670398464,140400,2026-09-25T17:01:08.488Z,443.1,,,,0,,,1,2026-09-25T17:01:08.925Z,6.1,16.517,0.01,99,25.6,0.0,0,1198627887,2026-09-25T17:01:08.925Z,5.8,5.225,0.019,1,2026-09-25T17:01:08.484Z,446.6,,,,,,,,,,,,,,,,,,,187,2166.44,2026-09-25T17:01:08.923Z,7.6,0,1500,0,0,2026-09-25T17:01:08.924Z,7.1,1507,1511,1528,1493,255,2026-09-25T17:01:08.926Z,5.1,1.12,-0.39,0.0,0.0,0.0,2026-09-25T17:01:08.926Z,5.5,2026-09-25T17:01:08.494Z,436.6,2026-09-25T17:01:08.931Z,0.3,2026-09-25T17:01:08.930Z,0.6,2026-09-25T17:01:08.930Z,0.9,,
2026-09-25T17:01:08.976Z,2026-09-25T17:01:11.042Z,0.5,10,False,,0,0,-0.873188,0.55405,-172.605255,-0.011459,0.0,-0.02521,39.0187655,-104.8934866,2166.44,0.344,0.0,0.0,-0.01,187.41,0.0,-0.009,39.0187655,-104.8934866,2166.44,0.01,180.0,32,6,0.66,1.19,0.002,0.014,0.017,0,0.0,-0.02942,-9.77723,0.0,0.0,0.0,-217,-1,454,16.517,0.01,0,99,19.0,1000,1000,1000,1000,0.021,0.021,0.022,0,0,0,167,0.0,0.0007,0.017,0.0055,790.834,41.41,,,,2026-09-25T17:01:08.973Z,0.001,5.139,0,2026-04-01 14:44:00,17.25,449.8,449.0,,,,,,,2026-09-25T17:01:08.974Z,2.8,2026-09-25T17:01:08.974Z,2.2,-1,-3,-1000,0,0,0,2026-09-25T17:01:08.924Z,52.2,2026-09-25T17:01:08.926Z,50.3,2026-09-25T17:01:08.923Z,53.5,1790355670398464,140400,2026-09-25T17:01:08.488Z,488.6,,,,0,,,1,2026-09-25T17:01:08.925Z,51.7,16.517,0.01,99,25.6,0.0,0,1198627887,2026-09-25T17:01:08.925Z,51.3,5.225,0.019,1,2026-09-25T17:01:08.484Z,492.1,,,,,,,,,,,,,,,,,,,187,2166.44,2026-09-25T17:01:08.923Z,53.1,0,1500,0,0,2026-09-25T17:01:08.924Z,52.6,1507,1511,1528,1493,255,2026-09-25T17:01:08.926Z,50.7,1.12,-0.39,0.0,0.0,0.0,2026-09-25T17:01:08.926Z,51.0,2026-09-25T17:01:08.494Z,482.1,2026-09-25T17:01:08.931Z,45.8,2026-09-25T17:01:08.930Z,46.1,2026-09-25T17:01:08.930Z,46.4,,
2026-09-25T17:01:09.028Z,2026-09-25T17:01:11.094Z,0.55,11,False,,0,0,-0.872042,0.55405,-172.608692,0.033232,-0.00974,-0.002292,39.0187655,-104.8934866,2166.44,0.346,0.0,0.0,-0.01,187.4,0.0,-0.009,39.0187655,-104.8934866,2166.44,0.01,180.0,32,6,0.66,1.19,0.002,0.014,0.017,0,0.0,-0.039227,-9.787037,0.001,0.0,0.0,-217,-1,454,16.517,0.01,0,99,19.0,1000,1000,1000,1000,0.021,0.021,0.022,0,0,0,167,0.0,0.0007,0.017,0.0055,790.834,41.41,,,,2026-09-25T17:01:09.023Z,0.002,7.158,0,2026-04-01 14:44:00,17.25,499.8,499.0,,,,,,,2026-09-25T17:01:09.026Z,2.9,2026-09-25T17:01:09.026Z,2.3,-1,-2,-1000,0,0,0,2026-09-25T17:01:09.024Z,4.3,2026-09-25T17:01:08.926Z,102.4,2026-09-25T17:01:09.023Z,5.6,1790355670398464,140400,2026-09-25T17:01:08.488Z,540.7,,,,0,,,1,2026-09-25T17:01:09.025Z,3.8,16.517,0.01,99,25.6,0.0,0,1198627887,2026-09-25T17:01:08.925Z,103.4,5.225,0.019,1,2026-09-25T17:01:08.484Z,544.2,,,,,,,,,,,,,,,,,,,187,2166.44,2026-09-25T17:01:09.023Z,5.2,0,1500,0,0,2026-09-25T17:01:09.024Z,4.8,1507,1511,1528,1493,255,2026-09-25T17:01:08.926Z,102.8,1.12,-0.39,0.0,0.0,0.0,2026-09-25T17:01:08.926Z,103.1,2026-09-25T17:01:08.494Z,534.2,2026-09-25T17:01:08.931Z,97.9,2026-09-25T17:01:08.930Z,98.2,2026-09-25T17:01:08.930Z,98.5,,
2026-09-25T17:01:09.077Z,2026-09-25T17:01:11.143Z,0.6,12,False,,0,0,-0.870896,0.55405,-172.610984,0.006875,0.002865,-0.016043,39.0187655,-104.8934866,2166.44,0.346,0.0,0.0,-0.01,187.4,0.0,-0.009,39.0187655,-104.8934866,2166.44,0.01,180.0,32,6,0.66,1.19,0.002,0.014,0.017,0,0.0,-0.02942,-9.77723,0.001,0.0,0.0,-215,0,454,16.517,0.01,0,99,19.0,1000,1000,1000,1000,0.021,0.021,0.022,0,0,0,167,0.0,0.0007,0.017,0.0055,790.834,41.41,,,,2026-09-25T17:01:09.073Z,0.002,5.187,0,2026-04-01 14:44:00,17.25,549.8,549.0,,,,,,,2026-09-25T17:01:09.074Z,2.9,2026-09-25T17:01:09.074Z,2.3,-1,-2,-1000,0,0,0,2026-09-25T17:01:09.024Z,52.4,2026-09-25T17:01:08.926Z,150.5,2026-09-25T17:01:09.023Z,53.6,1790355670398464,140400,2026-09-25T17:01:08.488Z,588.7,,,,0,,,1,2026-09-25T17:01:09.025Z,51.9,16.517,0.01,99,25.6,0.0,0,1198627887,2026-09-25T17:01:08.925Z,151.5,5.225,0.019,1,2026-09-25T17:01:08.484Z,592.2,,,,,,,,,,,,,,,,,,,187,2166.44,2026-09-25T17:01:09.023Z,53.3,0,1500,0,0,2026-09-25T17:01:09.024Z,52.8,1507,1511,1528,1493,255,2026-09-25T17:01:08.926Z,150.8,1.12,-0.39,0.0,0.0,0.0,2026-09-25T17:01:08.926Z,151.2,2026-09-25T17:01:08.494Z,582.2,2026-09-25T17:01:08.931Z,145.9,2026-09-25T17:01:08.930Z,146.2,2026-09-25T17:01:08.930Z,146.5,,
2026-09-25T17:01:09.130Z,2026-09-25T17:01:11.196Z,0.65,13,False,,0,0,-0.870323,0.554623,-172.61213,-0.004011,0.03094,0.008594,39.0187655,-104.8934866,2166.44,0.352,0.0,0.0,-0.01,187.39,0.0,-0.009,39.0187655,-104.8934866,2166.44,0.0,81.86,32,6,0.66,1.19,0.002,0.007,0.018,0,0.009807,-0.02942,-9.787037,0.0,0.0,0.0,-215,0,454,16.509,0.01,0,99,19.0,1000,1000,1000,1000,0.021,0.021,0.022,0,0,0,167,0.0,0.0007,0.017,0.0055,790.834,41.41,,,,2026-09-25T17:01:09.123Z,0.002,8.498,0,2026-04-01 14:44:00,17.25,599.8,599.0,,,,,,,2026-09-25T17:01:09.127Z,2.9,2026-09-25T17:01:09.128Z,2.3,-2,-2,-1001,0,0,0,2026-09-25T17:01:09.124Z,5.7,2026-09-25T17:01:09.126Z,3.8,2026-09-25T17:01:09.123Z,6.9,1790355670398464,140400,2026-09-25T17:01:08.488Z,642.1,,,,0,,,1,2026-09-25T17:01:09.125Z,5.2,16.509,0.01,99,26.0,0.0,0,1198627887,2026-09-25T17:01:09.125Z,4.9,5.225,0.019,1,2026-09-25T17:01:08.484Z,645.6,,,,,,,,,,,,,,,,,,,187,2166.44,2026-09-25T17:01:09.123Z,6.6,0,1500,0,0,2026-09-25T17:01:09.124Z,6.1,1507,1511,1528,1493,255,2026-09-25T17:01:09.126Z,4.2,1.12,-0.39,0.0,0.0,0.0,2026-09-25T17:01:09.125Z,4.5,2026-09-25T17:01:08.494Z,635.6,2026-09-25T17:01:08.931Z,199.2,2026-09-25T17:01:08.930Z,199.5,2026-09-25T17:01:08.930Z,199.9,,
2026-09-25T17:01:09.177Z,2026-09-25T17:01:11.243Z,0.7,14,False,,0,0,-0.870896,0.55405,-172.612703,-0.016616,-0.017189,0.00573,39.0187655,-104.8934866,2166.44,0.352,0.0,0.0,-0.01,187.39,0.0,-0.009,39.0187655,-104.8934866,2166.44,0.0,81.86,32,6,0.66,1.19,0.002,0.007,0.018,0,0.009807,-0.02942,-9.787037,0.0,0.0,0.0,-216,-1,454,16.509,0.01,0,99,19.0,1000,1000,1000,1000,0.021,0.021,0.022,0,0,0,167,0.0,0.0007,0.017,0.0055,790.834,41.41,,,,2026-09-25T17:01:09.173Z,0.002,5.809,0,2026-04-01 14:44:00,17.25,649.8,649.0,0.0,0.0,0.0,0.0,2026-09-25T17:01:09.173Z,3.8,2026-09-25T17:01:09.174Z,2.9,2026-09-25T17:01:09.175Z,2.3,-2,-2,-1001,0,0,0,2026-09-25T17:01:09.124Z,53.0,2026-09-25T17:01:09.126Z,51.1,2026-09-25T17:01:09.123Z,54.2,1790355670398464,140400,2026-09-25T17:01:08.488Z,689.3,,,,0,,,1,2026-09-25T17:01:09.125Z,52.5,16.509,0.01,99,26.0,0.0,0,1198627887,2026-09-25T17:01:09.125Z,52.1,5.225,0.019,1,2026-09-25T17:01:08.484Z,692.8,,,,,,,,,,,,,,,,,,,187,2166.44,2026-09-25T17:01:09.123Z,53.9,0,1500,0,0,2026-09-25T17:01:09.124Z,53.4,1507,1511,1528,1493,255,2026-09-25T17:01:09.126Z,51.5,1.12,-0.39,0.0,0.0,0.0,2026-09-25T17:01:09.125Z,51.8,2026-09-25T17:01:08.494Z,682.8,2026-09-25T17:01:08.931Z,246.5,2026-09-25T17:01:08.930Z,246.8,2026-09-25T17:01:08.930Z,247.1,,
2026-09-25T17:01:09.229Z,2026-09-25T17:01:11.295Z,0.75,15,False,,0,0,-0.86975,0.55405,-172.613276,0.021772,0.006875,-0.012605,39.0187655,-104.8934866,2166.44,0.354,0.0,0.0,-0.01,187.39,0.0,-0.009,39.0187655,-104.8934866,2166.44,0.0,81.86,32,6,0.66,1.19,0.002,0.007,0.018,0,0.0,-0.02942,-9.787037,0.0,0.0,0.0,-216,-1,454,16.498,0.0,0,99,19.0,1000,1000,1000,1000,0.021,0.021,0.022,0,0,0,167,0.0,0.0007,0.017,0.0055,790.834,41.41,,,,2026-09-25T17:01:09.223Z,0.002,7.524,0,2026-04-01 14:44:00,17.25,699.8,699.0,0.0,0.0,4.0,4.0,2026-09-25T17:01:09.223Z,5.9,2026-09-25T17:01:09.226Z,2.9,2026-09-25T17:01:09.227Z,2.3,-1,-3,-1000,0,0,0,2026-09-25T17:01:09.225Z,4.3,2026-09-25T17:01:09.126Z,102.8,2026-09-25T17:01:09.223Z,5.6,1790355670398464,140400,2026-09-25T17:01:08.488Z,741.0,,,,0,,,1,2026-09-25T17:01:09.225Z,3.8,16.509,0.01,99,26.0,0.0,0,1198627887,2026-09-25T17:01:09.125Z,103.9,5.225,0.019,1,2026-09-25T17:01:08.484Z,744.5,,,,,,,,,,,,,,,,,,,187,2166.44,2026-09-25T17:01:09.224Z,5.3,0,1500,0,0,2026-09-25T17:01:09.224Z,4.8,1507,1511,1528,1493,255,2026-09-25T17:01:09.126Z,103.2,1.12,-0.39,0.0,0.0,0.0,2026-09-25T17:01:09.125Z,103.5,2026-09-25T17:01:08.494Z,734.6,2026-09-25T17:01:08.931Z,298.2,2026-09-25T17:01:08.930Z,298.5,2026-09-25T17:01:08.930Z,298.8,,
2026-09-25T17:01:09.277Z,2026-09-25T17:01:11.343Z,0.8,16,False,RTL,0,0,-0.868604,0.554623,-172.613276,0.017189,0.010313,-0.00573,39.0187655,-104.8934866,2166.44,0.354,0.0,0.0,-0.01,187.39,0.0,-0.009,39.0187655,-104.8934866,2166.44,0.0,81.86,32,6,0.66,1.19,0.002,0.007,0.018,0,0.009807,-0.039227,-9.787037,0.001,0.0,0.0,-216,0,453,16.498,0.0,0,99,19.0,1000,1000,1000,1000,0.021,0.021,0.022,0,0,0,167,0.0,0.0007,0.017,0.0055,790.834,41.41,,,,2026-09-25T17:01:09.273Z,0.002,5.605,0,2026-04-01 14:44:00,17.25,749.8,749.0,0.0,6.0,81.0,3.0,2026-09-25T17:01:09.273Z,3.9,2026-09-25T17:01:09.274Z,2.9,2026-09-25T17:01:09.275Z,2.3,-1,-3,-1000,0,0,0,2026-09-25T17:01:09.225Z,52.4,2026-09-25T17:01:09.126Z,150.9,2026-09-25T17:01:09.223Z,53.7,1790355670398464,140400,2026-09-25T17:01:08.488Z,789.1,,,,0,,,1,2026-09-25T17:01:09.225Z,51.9,16.509,0.01,99,26.0,0.0,0,1198627887,2026-09-25T17:01:09.125Z,151.9,5.225,0.019,1,2026-09-25T17:01:08.484Z,792.6,,,,,,,,,,,,,,,,,,,187,2166.44,2026-09-25T17:01:09.224Z,53.4,0,1500,0,0,2026-09-25T17:01:09.224Z,52.9,1507,1511,1528,1493,255,2026-09-25T17:01:09.126Z,151.3,1.12,-0.39,0.0,0.0,0.0,2026-09-25T17:01:09.125Z,151.6,2026-09-25T17:01:08.494Z,782.6,2026-09-25T17:01:08.931Z,346.3,2026-09-25T17:01:08.930Z,346.6,2026-09-25T17:01:08.930Z,346.9,,
2026-09-25T17:01:09.331Z,2026-09-25T17:01:11.397Z,0.85,17,False,RTL,0,0,-0.866885,0.554623,-172.614422,0.008594,0.018908,0.0,39.0187654,-104.8934866,2166.44,0.356,0.0,0.0,-0.01,187.39,-0.011,-0.009,39.0187654,-104.8934866,2166.44,0.01,30.46,32,6,0.66,1.19,0.002,0.02,0.018,0,0.009807,-0.019613,-9.787037,0.0,0.0,0.0,-216,0,453,16.516,0.01,0,99,19.0,1000,1000,1000,1000,0.021,0.021,0.022,0,0,0,167,0.0,0.0007,0.017,0.0055,790.834,41.41,,,,2026-09-25T17:01:09.323Z,0.002,9.558,0,2026-04-01 14:44:00,17.25,799.8,799.0,0.0,6.0,81.0,3.0,2026-09-25T17:01:09.273Z,57.8,2026-09-25T17:01:09.327Z,3.9,2026-09-25T17:01:09.328Z,3.3,-1,-3,-1001,1,0,0,2026-09-25T17:01:09.324Z,6.7,2026-09-25T17:01:09.326Z,4.8,2026-09-25T17:01:09.323Z,8.0,1790355671400800,141403,2026-09-25T17:01:09.331Z,0.3,,,,0,,,1,2026-09-25T17:01:09.325Z,6.2,16.516,0.01,99,25.7,0.0,0,1198627887,2026-09-25T17:01:09.325Z,5.9,5.246,0.014,1,2026-09-25T17:01:09.330Z,0.9,,,,,,,,,,,,,,,,,,,187,2166.44,2026-09-25T17:01:09.323Z,7.6,0,1500,0,0,2026-09-25T17:01:09.324Z,7.1,1507,1511,1528,1493,255,2026-09-25T17:01:09.326Z,5.2,1.12,-0.39,0.0,0.0,0.0,2026-09-25T17:01:09.325Z,5.6,2026-09-25T17:01:09.330Z,0.6,2026-09-25T17:01:08.931Z,400.3,2026-09-25T17:01:08.930Z,400.6,2026-09-25T17:01:08.930Z,400.9,,
2026-09-25T17:01:09.376Z,2026-09-25T17:01:11.442Z,0.9,18,False,RTL,0,0,-0.868031,0.555196,-172.614995,-0.003438,-0.007448,-0.001146,39.0187654,-104.8934866,2166.44,0.356,0.0,0.0,-0.01,187.39,-0.011,-0.009,39.0187654,-104.8934866,2166.44,0.01,30.46,32,6,0.66,1.19,0.002,0.02,0.018,0,0.009807,-0.039227,-9.787037,0.0,0.0,0.0,-216,0,454,16.516,0.01,0,99,19.0,1000,1000,1000,1000,0.021,0.021,0.022,0,0,0,167,0.0,0.0007,0.017,0.0055,790.834,41.41,,,,2026-09-25T17:01:09.373Z,0.002,5.137,0,2026-04-01 14:44:00,17.25,849.8,849.0,0.0,6.0,81.0,3.0,2026-09-25T17:01:09.273Z,103.4,2026-09-25T17:01:09.374Z,2.8,2026-09-25T17:01:09.374Z,2.2,-1,-3,-1001,1,0,0,2026-09-25T17:01:09.324Z,52.3,2026-09-25T17:01:09.326Z,50.3,2026-09-25T17:01:09.323Z,53.5,1790355671400800,141403,2026-09-25T17:01:09.331Z,45.8,,,,0,,,1,2026-09-25T17:01:09.325Z,51.7,16.516,0.01,99,25.7,0.0,0,1198627887,2026-09-25T17:01:09.325Z,51.4,5.246,0.014,1,2026-09-25T17:01:09.330Z,46.4,,,,,,,,,,,,,,,,,,,187,2166.44,2026-09-25T17:01:09.323Z,53.2,0,1500,0,0,2026-09-25T17:01:09.324Z,52.7,1507,1511,1528,1493,255,2026-09-25T17:01:09.326Z,50.7,1.12,-0.39,0.0,0.0,0.0,2026-09-25T17:01:09.325Z,51.1,2026-09-25T17:01:09.330Z,46.1,2026-09-25T17:01:08.931Z,445.8,2026-09-25T17:01:08.930Z,446.1,2026-09-25T17:01:08.930Z,446.4,,
2026-09-25T17:01:09.431Z,2026-09-25T17:01:11.497Z,0.95,19,False,RTL,0,0,-0.868031,0.555196,-172.616141,-0.003438,0.014324,-0.002292,39.0187654,-104.8934866,2166.44,0.356,0.0,0.0,-0.01,187.39,-0.011,-0.009,39.0187654,-104.8934866,2166.44,0.01,30.46,32,6,0.66,1.19,0.002,0.02,0.018,0,0.0,-0.019613,-9.77723,0.0,0.0,0.0,-216,0,454,16.52,0.01,0,99,19.0,1000,1000,1000,1000,0.022,0.021,0.024,0,0,0,167,0.0,0.0007,0.0137,0.0043,790.85,41.45,,,,2026-09-25T17:01:09.423Z,0.004,9.843,0,2026-04-01 14:44:00,17.25,899.8,899.0,0.0,6.0,81.0,3.0,2026-09-25T17:01:09.273Z,158.1,2026-09-25T17:01:09.426Z,4.9,2026-09-25T17:01:09.427Z,4.1,-1,-3,-1000,0,0,0,2026-09-25T17:01:09.425Z,6.6,2026-09-25T17:01:09.326Z,105.1,2026-09-25T17:01:09.423Z,8.0,1790355671400800,141403,2026-09-25T17:01:09.331Z,100.5,,,,0,,,1,2026-09-25T17:01:09.425Z,5.9,16.516,0.01,99,25.7,0.0,0,1198627887,2026-09-25T17:01:09.325Z,106.1,5.246,0.014,1,2026-09-25T17:01:09.330Z,101.1,,,,,,,,,,,,,,,,,,,187,2166.44,2026-09-25T17:01:09.424Z,7.6,0,1500,0,0,2026-09-25T17:01:09.424Z,7.1,1507,1511,1528,1493,255,2026-09-25T17:01:09.326Z,105.4,1.12,-0.39,0.0,0.0,0.0,2026-09-25T17:01:09.325Z,105.8,2026-09-25T17:01:09.330Z,100.8,2026-09-25T17:01:09.431Z,0.3,2026-09-25T17:01:09.431Z,0.7,2026-09-25T17:01:09.430Z,1.2,,
2026-09-25T17:01:09.477Z,2026-09-25T17:01:11.543Z,1.0,20,False,RTL,0,0,-0.866885,0.55405,-172.617287,0.03495,-0.007448,0.004584,39.0187654,-104.8934866,2166.44,0.356,0.0,0.0,-0.01,187.39,-0.011,-0.009,39.0187654,-104.8934866,2166.44,0.01,30.46,32,6,0.66,1.19,0.002,0.02,0.018,0,0.009807,-0.039227,-9.787037,0.0,0.0,0.0,-216,0,453,16.52,0.01,0,99,19.0,1000,1000,1000,1000,0.022,0.021,0.024,0,0,0,167,0.0,0.0007,0.0137,0.0043,790.85,41.45,,,,2026-09-25T17:01:09.473Z,0.004,5.38,0,2026-04-01 14:44:00,17.25,949.8,949.0,0.0,6.0,81.0,3.0,2026-09-25T17:01:09.273Z,203.7,2026-09-25T17:01:09.474Z,3.0,2026-09-25T17:01:09.475Z,2.3,-1,-3,-1000,0,0,0,2026-09-25T17:01:09.425Z,52.2,2026-09-25T17:01:09.326Z,150.7,2026-09-25T17:01:09.423Z,53.6,1790355671400800,141403,2026-09-25T17:01:09.331Z,146.1,,,,0,,,1,2026-09-25T17:01:09.425Z,51.6,16.516,0.01,99,25.7,0.0,0,1198627887,2026-09-25T17:01:09.325Z,151.7,5.246,0.014,1,2026-09-25T17:01:09.330Z,146.7,,,,,,,,,,,,,,,,,,,187,2166.44,2026-09-25T17:01:09.424Z,53.2,0,1500,0,0,2026-09-25T17:01:09.424Z,52.7,1507,1511,1528,1493,255,2026-09-25T17:01:09.326Z,151.0,1.12,-0.39,0.0,0.0,0.0,2026-09-25T17:01:09.325Z,151.4,2026-09-25T17:01:09.330Z,146.4,2026-09-25T17:01:09.431Z,45.9,2026-09-25T17:01:09.431Z,46.3,2026-09-25T17:01:09.430Z,46.8,,
2026-09-25T17:01:09.532Z,2026-09-25T17:01:11.598Z,1.05,21,False,RTL,0,0,-0.866885,0.553477,-172.61786,-0.036096,-0.006875,0.006875,39.0187655,-104.8934866,2166.44,0.356,0.0,0.0,-0.01,187.39,0.0,-0.009,39.0187655,-104.8934866,2166.44,0.02,253.07,32,6,0.66,1.19,0.002,0.024,0.017,0,0.0,-0.039227,-9.787037,0.0,0.0,0.0,-216,0,453,16.505,0.01,0,99,19.0,1000,1000,1000,1000,0.022,0.021,0.024,0,0,0,167,0.0,0.0007,0.0137,0.0043,790.85,41.45,,,,2026-09-25T17:01:09.523Z,0.005,11.07,0,2026-04-01 14:44:00,17.25,999.8,999.0,0.0,6.0,81.0,3.0,2026-09-25T17:01:09.273Z,259.2,2026-09-25T17:01:09.529Z,3.7,2026-09-25T17:01:09.530Z,2.8,-1,-3,-1001,0,0,0,2026-09-25T17:01:09.525Z,7.3,2026-09-25T17:01:09.527Z,4.9,2026-09-25T17:01:09.523Z,9.0,1790355671400800,141403,2026-09-25T17:01:09.331Z,201.6,,,,0,,,1,2026-09-25T17:01:09.526Z,6.6,16.505,0.01,99,26.4,0.0,0,1198627887,2026-09-25T17:01:09.526Z,6.2,5.246,0.014,1,2026-09-25T17:01:09.330Z,202.2,,,,,,,,,,,,,,,,,,,187,2166.44,2026-09-25T17:01:09.524Z,8.6,0,1500,0,0,2026-09-25T17:01:09.524Z,8.0,1507,1511,1528,1493,255,2026-09-25T17:01:09.527Z,5.3,1.12,-0.39,0.0,0.0,0.0,2026-09-25T17:01:09.527Z,5.8,2026-09-25T17:01:09.330Z,201.9,2026-09-25T17:01:09.431Z,101.4,2026-09-25T17:01:09.431Z,101.8,2026-09-25T17:01:09.430Z,102.3,,
2026-09-25T17:01:09.580Z,2026-09-25T17:01:11.646Z,1.1,22,False,RTL,0,0,-0.866312,0.553477,-172.617287,0.037242,-0.008021,-0.01547,39.0187655,-104.8934866,2166.44,0.356,0.0,0.0,-0.01,187.39,0.0,-0.009,39.0187655,-104.8934866,2166.44,0.02,253.07,32,6,0.66,1.19,0.002,0.024,0.017,0,0.0,-0.039227,-9.787037,0.0,0.0,0.0,-217,0,454,16.505,0.01,0,99,19.0,1000,1000,1000,1000,0.022,0.021,0.024,0,0,0,167,0.0,0.0007,0.0137,0.0043,790.85,41.45,,,,2026-09-25T17:01:09.573Z,0.004,8.995,0,2026-04-01 14:44:01,17.25,-7.0,-7.7,0.0,6.0,81.0,3.0,2026-09-25T17:01:09.273Z,307.2,2026-09-25T17:01:09.574Z,6.5,2026-09-25T17:01:09.575Z,5.9,-1,-3,-1001,0,0,0,2026-09-25T17:01:09.525Z,55.3,2026-09-25T17:01:09.527Z,52.9,2026-09-25T17:01:09.523Z,57.1,1790355671400800,141403,2026-09-25T17:01:09.331Z,249.6,,,,0,,,1,2026-09-25T17:01:09.526Z,54.6,16.505,0.01,99,26.4,0.0,0,1198627887,2026-09-25T17:01:09.526Z,54.2,5.246,0.014,1,2026-09-25T17:01:09.330Z,250.3,,,,,,,,,,,,,,,,,,,187,2166.44,2026-09-25T17:01:09.524Z,56.6,0,1500,0,0,2026-09-25T17:01:09.524Z,56.0,1507,1511,1528,1493,255,2026-09-25T17:01:09.527Z,53.4,1.12,-0.39,0.0,0.0,0.0,2026-09-25T17:01:09.527Z,53.8,2026-09-25T17:01:09.330Z,250.0,2026-09-25T17:01:09.431Z,149.4,2026-09-25T17:01:09.431Z,149.9,2026-09-25T17:01:09.430Z,150.3,,
2026-09-25T17:01:09.630Z,2026-09-25T17:01:11.696Z,1.15,23,False,RTL,0,0,-0.866312,0.554623,-172.616714,0.019481,0.028648,-0.014897,39.0187655,-104.8934866,2166.44,0.357,0.0,0.0,-0.01,187.39,0.0,-0.009,39.0187655,-104.8934866,2166.44,0.02,253.07,32,6,0.66,1.19,0.002,0.024,0.017,0,0.009807,-0.02942,-9.787037,0.001,0.0,0.0,-217,0,454,16.504,0.01,0,99,19.0,1000,1000,1000,1000,0.022,0.021,0.024,0,0,0,167,0.0,0.0007,0.0137,0.0043,790.85,41.45,,,,2026-09-25T17:01:09.623Z,0.003,8.806,0,2026-04-01 14:44:01,17.25,43.0,42.3,0.0,6.0,81.0,3.0,2026-09-25T17:01:09.273Z,357.0,2026-09-25T17:01:09.627Z,3.5,2026-09-25T17:01:09.627Z,2.8,-1,-2,-1001,0,0,0,2026-09-25T17:01:09.625Z,5.1,2026-09-25T17:01:09.527Z,102.8,2026-09-25T17:01:09.623Z,6.9,1790355671400800,141403,2026-09-25T17:01:09.331Z,299.5,,,,0,,,1,2026-09-25T17:01:09.626Z,4.5,16.505,0.01,99,26.4,0.0,0,1198627887,2026-09-25T17:01:09.526Z,104.1,5.246,0.014,1,2026-09-25T17:01:09.330Z,300.1,,,,,,,,,,,,,,,,,,,187,2166.44,2026-09-25T17:01:09.624Z,6.4,0,1500,0,0,2026-09-25T17:01:09.624Z,5.7,1507,1511,1528,1493,255,2026-09-25T17:01:09.527Z,103.2,1.12,-0.39,0.0,0.0,0.0,2026-09-25T17:01:09.527Z,103.7,2026-09-25T17:01:09.330Z,299.8,2026-09-25T17:01:09.431Z,199.3,2026-09-25T17:01:09.431Z,199.7,2026-09-25T17:01:09.430Z,200.1,,
2026-09-25T17:01:09.677Z,2026-09-25T17:01:11.743Z,1.2,24,False,RTL,0,0,-0.865739,0.554623,-172.613276,-0.018335,-0.018908,0.021199,39.0187655,-104.8934866,2166.44,0.357,0.0,0.0,-0.01,187.39,0.0,-0.009,39.0187655,-104.8934866,2166.44,0.02,253.07,32,6,0.66,1.19,0.002,0.024,0.017,0,0.0,-0.039227,-9.787037,0.0,0.0,0.0,-215,-1,453,16.504,0.01,0,99,19.0,1000,1000,1000,1000,0.022,0.021,0.024,0,0,0,167,0.0,0.0007,0.0137,0.0043,790.85,41.45,,,,2026-09-25T17:01:09.673Z,0.003,5.345,0,2026-04-01 14:44:01,17.25,93.0,92.3,0.0,6.0,81.0,3.0,2026-09-25T17:01:09.273Z,403.6,2026-09-25T17:01:09.674Z,2.9,2026-09-25T17:01:09.675Z,2.3,-1,-2,-1001,0,0,0,2026-09-25T17:01:09.625Z,51.7,2026-09-25T17:01:09.527Z,149.4,2026-09-25T17:01:09.623Z,53.5,1790355671400800,141403,2026-09-25T17:01:09.331Z,346.1,,,,0,,,1,2026-09-25T17:01:09.626Z,51.1,16.505,0.01,99,26.4,0.0,0,1198627887,2026-09-25T17:01:09.526Z,150.7,5.246,0.014,1,2026-09-25T17:01:09.330Z,346.7,,,,,,,,,,,,,,,,,,,187,2166.44,2026-09-25T17:01:09.624Z,53.0,0,1500,0,0,2026-09-25T17:01:09.624Z,52.3,1507,1511,1528,1493,255,2026-09-25T17:01:09.527Z,149.8,1.12,-0.39,0.0,0.0,0.0,2026-09-25T17:01:09.527Z,150.3,2026-09-25T17:01:09.330Z,346.4,2026-09-25T17:01:09.431Z,245.9,2026-09-25T17:01:09.431Z,246.3,2026-09-25T17:01:09.430Z,246.7,,
2026-09-25T17:01:09.730Z,2026-09-25T17:01:11.796Z,1.25,25,False,RTL,0,0,-0.865166,0.55405,-172.610411,0.020626,-0.029221,-0.0,39.0187655,-104.8934866,2166.43,0.359,0.0,0.0,-0.01,187.39,0.0,-0.009,39.0187655,-104.8934866,2166.43,0.01,261.86,32,6,0.66,1.19,0.001,0.014,0.018,0,0.009807,-0.02942,-9.77723,0.0,0.0,0.0,-215,-1,453,16.502,0.01,0,99,19.0,1000,1000,1000,1000,0.022,0.021,0.024,0,0,0,167,0.0,0.0007,0.0137,0.0043,790.85,41.45,,,,2026-09-25T17:01:09.723Z,0.002,8.712,0,2026-04-01 14:44:01,17.25,143.0,142.3,0.0,6.0,81.0,3.0,2026-09-25T17:01:09.273Z,457.0,2026-09-25T17:01:09.727Z,2.9,2026-09-25T17:01:09.728Z,2.3,0,-2,-1000,0,0,0,2026-09-25T17:01:09.724Z,5.8,2026-09-25T17:01:09.726Z,3.9,2026-09-25T17:01:09.723Z,7.0,1790355671400800,141403,2026-09-25T17:01:09.331Z,399.4,,,,0,,,1,2026-09-25T17:01:09.725Z,5.2,16.502,0.01,99,25.4,0.0,0,1198627887,2026-09-25T17:01:09.725Z,4.9,5.246,0.014,1,2026-09-25T17:01:09.330Z,400.0,,,,,,,,,,,,,,,,,,,187,2166.43,2026-09-25T17:01:09.724Z,6.6,0,1500,0,0,2026-09-25T17:01:09.724Z,6.2,1507,1511,1528,1493,255,2026-09-25T17:01:09.726Z,4.2,1.12,-0.39,0.0,0.0,0.0,2026-09-25T17:01:09.726Z,4.6,2026-09-25T17:01:09.330Z,399.7,2026-09-25T17:01:09.431Z,299.2,2026-09-25T17:01:09.431Z,299.7,2026-09-25T17:01:09.430Z,300.1,,
2026-09-25T17:01:09.777Z,2026-09-25T17:01:11.843Z,1.3,26,False,RTL,0,0,-0.865166,0.553477,-172.608692,-0.00974,-0.018908,-0.035523,39.0187655,-104.8934866,2166.43,0.359,0.0,0.0,-0.01,187.39,0.0,-0.009,39.0187655,-104.8934866,2166.43,0.01,261.86,32,6,0.66,1.19,0.001,0.014,0.018,0,0.0,-0.02942,-9.787037,0.001,0.0,0.0,-217,0,454,16.502,0.01,0,99,19.0,1000,1000,1000,1000,0.022,0.021,0.024,0,0,0,167,0.0,0.0007,0.0137,0.0043,790.85,41.45,,,,2026-09-25T17:01:09.773Z,0.002,5.229,0,2026-04-01 14:44:01,17.25,193.0,192.3,0.0,6.0,81.0,3.0,2026-09-25T17:01:09.273Z,503.5,2026-09-25T17:01:09.774Z,2.9,2026-09-25T17:01:09.774Z,2.3,0,-2,-1000,0,0,0,2026-09-25T17:01:09.724Z,52.3,2026-09-25T17:01:09.726Z,50.4,2026-09-25T17:01:09.723Z,53.5,1790355671400800,141403,2026-09-25T17:01:09.331Z,445.9,,,,0,,,1,2026-09-25T17:01:09.725Z,51.7,16.502,0.01,99,25.4,0.0,0,1198627887,2026-09-25T17:01:09.725Z,51.4,5.246,0.014,1,2026-09-25T17:01:09.330Z,446.6,,,,,,,,,,,,,,,,,,,187,2166.43,2026-09-25T17:01:09.724Z,53.2,0,1500,0,0,2026-09-25T17:01:09.724Z,52.7,1507,1511,1528,1493,255,2026-09-25T17:01:09.726Z,50.7,1.12,-0.39,0.0,0.0,0.0,2026-09-25T17:01:09.726Z,51.1,2026-09-25T17:01:09.330Z,446.2,2026-09-25T17:01:09.431Z,345.7,2026-09-25T17:01:09.431Z,346.2,2026-09-25T17:01:09.430Z,346.6,,
2026-09-25T17:01:09.829Z,2026-09-25T17:01:11.895Z,1.35,27,False,RTL,0,0,-0.865739,0.553477,-172.607546,-0.002292,0.033805,-0.024637,39.0187655,-104.8934866,2166.43,0.359,0.0,0.0,-0.01,187.4,0.0,-0.009,39.0187655,-104.8934866,2166.43,0.01,261.86,32,6,0.66,1.19,0.001,0.014,0.017,0,0.0,-0.02942,-9.787037,0.0,0.0,0.0,-217,0,454,16.521,0.01,0,99,19.0,1000,1000,1000,1000,0.022,0.021,0.024,0,0,0,167,0.0,0.0007,0.0137,0.0043,790.85,41.45,,,,2026-09-25T17:01:09.823Z,0.002,7.213,0,2026-04-01 14:44:01,17.25,243.0,242.3,0.0,6.0,81.0,3.0,2026-09-25T17:01:09.273Z,555.5,2026-09-25T17:01:09.826Z,2.9,2026-09-25T17:01:09.826Z,2.3,-1,-3,-1000,0,0,0,2026-09-25T17:01:09.824Z,4.4,2026-09-25T17:01:09.726Z,102.4,2026-09-25T17:01:09.823Z,5.6,1790355671400800,141403,2026-09-25T17:01:09.331Z,497.9,,,,0,,,1,2026-09-25T17:01:09.825Z,3.8,16.502,0.01,99,25.4,0.0,0,1198627887,2026-09-25T17:01:09.725Z,103.4,5.246,0.014,1,2026-09-25T17:01:09.330Z,498.5,,,,,,,,,,,,,,,,,,,187,2166.43,2026-09-25T17:01:09.823Z,5.2,0,1500,0,0,2026-09-25T17:01:09.824Z,4.8,1507,1511,1528,1493,255,2026-09-25T17:01:09.726Z,102.7,1.12,-0.39,0.0,0.0,0.0,2026-09-25T17:01:09.726Z,103.1,2026-09-25T17:01:09.330Z,498.2,2026-09-25T17:01:09.431Z,397.7,2026-09-25T17:01:09.431Z,398.2,2026-09-25T17:01:09.430Z,398.6,,
2026-09-25T17:01:09.877Z,2026-09-25T17:01:11.943Z,1.4,28,False,RTL,0,0,-0.865166,0.553477,-172.605828,-0.020054,-0.019481,-0.006303,39.0187655,-104.8934866,2166.43,0.359,0.0,0.0,-0.01,187.4,0.0,-0.009,39.0187655,-104.8934866,2166.43,0.01,261.86,32,6,0.66,1.19,0.001,0.014,0.017,0,0.009807,-0.02942,-9.787037,0.0,0.0,0.0,-216,-1,454,16.521,0.01,0,99,19.0,1000,1000,1000,1000,0.022,0.021,0.024,0,0,0,167,0.0,0.0007,0.0137,0.0043,790.85,41.45,,,,2026-09-25T17:01:09.873Z,0.003,5.187,0,2026-04-01 14:44:01,17.25,293.0,292.3,0.0,6.0,81.0,3.0,2026-09-25T17:01:09.273Z,603.5,2026-09-25T17:01:09.874Z,2.9,2026-09-25T17:01:09.874Z,2.3,-1,-3,-1000,0,0,0,2026-09-25T17:01:09.824Z,52.3,2026-09-25T17:01:09.726Z,150.3,2026-09-25T17:01:09.823Z,53.6,1790355671400800,141403,2026-09-25T17:01:09.331Z,545.9,,,,0,,,1,2026-09-25T17:01:09.825Z,51.8,16.502,0.01,99,25.4,0.0,0,1198627887,2026-09-25T17:01:09.725Z,151.4,5.246,0.014,1,2026-09-25T17:01:09.330Z,546.5,,,,,,,,,,,,,,,,,,,187,2166.43,2026-09-25T17:01:09.823Z,53.2,0,1500,0,0,2026-09-25T17:01:09.824Z,52.7,1507,1511,1528,1493,255,2026-09-25T17:01:09.726Z,150.7,1.12,-0.39,0.0,0.0,0.0,2026-09-25T17:01:09.726Z,151.0,2026-09-25T17:01:09.330Z,546.2,2026-09-25T17:01:09.431Z,445.7,2026-09-25T17:01:09.431Z,446.1,2026-09-25T17:01:09.430Z,446.6,,
2026-09-25T17:01:09.931Z,2026-09-25T17:01:11.997Z,1.45,29,False,RTL,0,0,-0.864593,0.553477,-172.604682,0.016616,-0.019481,0.003438,39.0187655,-104.8934866,2166.43,0.36,0.0,0.0,-0.01,187.4,0.0,-0.009,39.0187655,-104.8934866,2166.43,0.02,85.42,32,6,0.66,1.19,0.001,0.025,0.017,0,0.0,-0.02942,-9.787037,0.001,0.0,0.0,-216,-1,454,16.515,0.01,0,99,19.0,1000,1000,1000,1000,0.022,0.021,0.023,0,0,0,167,0.0,0.0006,0.0152,0.0121,790.869,41.49,,,,2026-09-25T17:01:09.923Z,0.002,9.532,0,2026-04-01 14:44:01,17.25,343.0,342.3,0.0,6.0,81.0,3.0,2026-09-25T17:01:09.273Z,657.8,2026-09-25T17:01:09.927Z,3.9,2026-09-25T17:01:09.928Z,3.2,-1,-3,-1000,0,0,0,2026-09-25T17:01:09.924Z,6.7,2026-09-25T17:01:09.926Z,4.8,2026-09-25T17:01:09.923Z,7.9,1790355671400800,141403,2026-09-25T17:01:09.331Z,600.2,,,,0,,,1,2026-09-25T17:01:09.925Z,6.1,16.515,0.01,99,25.7,0.0,0,1198627887,2026-09-25T17:01:09.925Z,5.8,5.246,0.014,1,2026-09-25T17:01:09.330Z,600.9,,,,,,,,,,,,,,,,,,,187,2166.43,2026-09-25T17:01:09.923Z,7.6,0,1500,0,0,2026-09-25T17:01:09.924Z,7.1,1507,1511,1528,1493,255,2026-09-25T17:01:09.926Z,5.1,1.12,-0.39,0.0,0.0,0.0,2026-09-25T17:01:09.926Z,5.5,2026-09-25T17:01:09.330Z,600.5,2026-09-25T17:01:09.931Z,0.3,2026-09-25T17:01:09.930Z,0.6,2026-09-25T17:01:09.930Z,0.9,,
2026-09-25T17:01:09.977Z,2026-09-25T17:01:12.043Z,1.5,30,False,RTL,0,0,-0.86402,0.55405,-172.601244,0.012605,0.001719,0.032086,39.0187655,-104.8934866,2166.43,0.36,0.0,0.0,-0.01,187.4,0.0,-0.009,39.0187655,-104.8934866,2166.43,0.02,85.42,32,6,0.66,1.19,0.001,0.025,0.017,0,0.009807,-0.02942,-9.787037,0.0,0.0,0.0,-217,-1,454,16.515,0.01,0,99,19.0,1000,1000,1000,1000,0.022,0.021,0.023,0,0,0,167,0.0,0.0006,0.0152,0.0121,790.869,41.49,,,,2026-09-25T17:01:09.973Z,0.002,5.239,0,2026-04-01 14:44:01,17.25,393.0,392.3,0.0,6.0,81.0,3.0,2026-09-25T17:01:09.273Z,703.5,2026-09-25T17:01:09.974Z,2.9,2026-09-25T17:01:09.974Z,2.3,-1,-3,-1000,0,0,0,2026-09-25T17:01:09.924Z,52.4,2026-09-25T17:01:09.926Z,50.5,2026-09-25T17:01:09.923Z,53.6,1790355671400800,141403,2026-09-25T17:01:09.331Z,645.9,,,,0,,,1,2026-09-25T17:01:09.925Z,51.9,16.515,0.01,99,25.7,0.0,0,1198627887,2026-09-25T17:01:09.925Z,51.5,5.246,0.014,1,2026-09-25T17:01:09.330Z,646.6,,,,,,,,,,,,,,,,,,,187,2166.43,2026-09-25T17:01:09.923Z,53.3,0,1500,0,0,2026-09-25T17:01:09.924Z,52.8,1507,1511,1528,1493,255,2026-09-25T17:01:09.926Z,50.9,1.12,-0.39,0.0,0.0,0.0,2026-09-25T17:01:09.926Z,51.2,2026-09-25T17:01:09.330Z,646.3,2026-09-25T17:01:09.931Z,46.0,2026-09-25T17:01:09.930Z,46.3,2026-09-25T17:01:09.930Z,46.6,,
2026-09-25T17:01:10.029Z,2026-09-25T17:01:12.095Z,1.55,31,False,RTL,0,0,-0.862874,0.55405,-172.599525,0.022918,0.001719,-0.024064,39.0187655,-104.8934866,2166.43,0.362,0.0,0.0,-0.01,187.41,0.0,-0.009,39.0187655,-104.8934866,2166.43,0.02,85.42,32,6,0.66,1.19,0.001,0.025,0.017,0,0.009807,-0.019613,-9.77723,0.001,0.0,0.0,-217,-1,454,16.515,0.0,0,99,19.0,1000,1000,1000,1000,0.022,0.021,0.023,0,0,0,167,0.0,0.0006,0.0152,0.0121,790.869,41.49,,,,2026-09-25T17:01:10.023Z,0.002,7.215,0,2026-04-01 14:44:01,17.25,443.0,442.3,0.0,6.0,81.0,3.0,2026-09-25T17:01:09.273Z,755.5,2026-09-25T17:01:10.026Z,2.9,2026-09-25T17:01:10.026Z,2.3,0,-3,-1000,0,0,0,2026-09-25T17:01:10.024Z,4.4,2026-09-25T17:01:09.926Z,102.5,2026-09-25T17:01:10.023Z,5.6,1790355671400800,141403,2026-09-25T17:01:09.331Z,697.9,,,,0,,,1,2026-09-25T17:01:10.025Z,3.8,16.515,0.01,99,25.7,0.0,0,1198627887,2026-09-25T17:01:09.925Z,103.5,5.246,0.014,1,2026-09-25T17:01:09.330Z,698.5,,,,,,,,,,,,,,,,,,,187,2166.43,2026-09-25T17:01:10.023Z,5.3,0,1500,0,0,2026-09-25T17:01:10.024Z,4.8,1507,1511,1528,1493,255,2026-09-25T17:01:09.926Z,102.8,1.12,-0.39,0.0,0.0,0.0,2026-09-25T17:01:09.926Z,103.2,2026-09-25T17:01:09.330Z,698.2,2026-09-25T17:01:09.931Z,97.9,2026-09-25T17:01:09.930Z,98.2,2026-09-25T17:01:09.930Z,98.6,,
2026-09-25T17:01:10.078Z,2026-09-25T17:01:12.144Z,1.6,32,False,RTL,0,0,-0.862874,0.552904,-172.597233,0.019481,0.008021,0.029794,39.0187655,-104.8934866,2166.43,0.362,0.0,0.0,-0.01,187.41,0.0,-0.009,39.0187655,-104.8934866,2166.43,0.02,85.42,32,6,0.66,1.19,0.001,0.025,0.017,0,0.009807,-0.019613,-9.787037,0.001,0.0,0.0,-215,0,453,16.515,0.0,0,99,19.0,1000,1000,1000,1000,0.022,0.021,0.023,0,0,0,167,0.0,0.0006,0.0152,0.0121,790.869,41.49,,,,2026-09-25T17:01:10.073Z,0.002,6.503,0,2026-04-01 14:44:01,17.25,493.0,492.3,0.0,6.0,81.0,3.0,2026-09-25T17:01:09.273Z,804.8,2026-09-25T17:01:10.075Z,3.2,2026-09-25T17:01:10.075Z,2.6,0,-3,-1000,0,0,0,2026-09-25T17:01:10.024Z,53.6,2026-09-25T17:01:09.926Z,151.8,2026-09-25T17:01:10.023Z,54.9,1790355671400800,141403,2026-09-25T17:01:09.331Z,747.2,,,,0,,,1,2026-09-25T17:01:10.025Z,53.1,16.515,0.01,99,25.7,0.0,0,1198627887,2026-09-25T17:01:09.925Z,152.8,5.246,0.014,1,2026-09-25T17:01:09.330Z,747.8,,,,,,,,,,,,,,,,,,,187,2166.43,2026-09-25T17:01:10.023Z,54.5,0,1500,0,0,2026-09-25T17:01:10.024Z,54.1,1507,1511,1528,1493,255,2026-09-25T17:01:09.926Z,152.1,1.12,-0.39,0.0,0.0,0.0,2026-09-25T17:01:09.926Z,152.5,2026-09-25T17:01:09.330Z,747.5,2026-09-25T17:01:09.931Z,147.2,2026-09-25T17:01:09.930Z,147.5,2026-09-25T17:01:09.930Z,147.9,,
2026-09-25T17:01:10.131Z,2026-09-25T17:01:12.197Z,1.65,33,False,RTL,0,0,-0.863447,0.552904,-172.595514,-0.000573,-0.001146,-0.0,39.0187654,-104.8934866,2166.83,0.364,0.0,0.0,-0.01,187.41,-0.011,-0.009,39.0187655,-104.8934866,2166.43,0.0,270.0,32,6,0.66,1.19,0.004,0.017,0.017,0,0.0,-0.02942,-9.787037,0.001,0.0,0.0,-215,0,453,16.51,0.01,0,99,19.0,1000,1000,1000,1000,0.022,0.021,0.023,0,0,0,167,0.0,0.0006,0.0152,0.0121,790.869,41.49,,,,2026-09-25T17:01:10.123Z,0.002,9.524,0,2026-04-01 14:44:01,17.25,543.0,542.3,0.0,0.0,0.0,0.0,2026-09-25T17:01:10.127Z,4.2,2026-09-25T17:01:10.128Z,3.3,2026-09-25T17:01:10.128Z,2.6,-1,-3,-1000,0,0,0,2026-09-25T17:01:10.124Z,6.7,2026-09-25T17:01:10.126Z,4.8,2026-09-25T17:01:10.123Z,7.9,1790355671400800,141403,2026-09-25T17:01:09.331Z,800.2,,,,0,,,1,2026-09-25T17:01:10.125Z,6.2,16.51,0.01,99,26.1,0.0,0,1198627887,2026-09-25T17:01:10.125Z,5.8,5.246,0.014,1,2026-09-25T17:01:09.330Z,800.8,,,,,,,,,,,,,,,,,,,187,2166.83,2026-09-25T17:01:10.123Z,7.6,0,1500,0,0,2026-09-25T17:01:10.124Z,7.1,1507,1511,1528,1493,255,2026-09-25T17:01:10.126Z,5.1,1.12,-0.39,0.0,0.0,0.01,2026-09-25T17:01:10.126Z,5.5,2026-09-25T17:01:09.330Z,800.5,2026-09-25T17:01:09.931Z,200.2,2026-09-25T17:01:09.930Z,200.6,2026-09-25T17:01:09.930Z,200.9,,
2026-09-25T17:01:10.178Z,2026-09-25T17:01:12.244Z,1.7,34,False,RTL,0,0,-0.863447,0.553477,-172.593223,-0.029794,0.013751,-0.0,39.0187654,-104.8934866,2166.83,0.364,0.0,0.0,-0.01,187.41,-0.011,-0.009,39.0187655,-104.8934866,2166.43,0.0,270.0,32,6,0.66,1.19,0.004,0.017,0.017,0,0.0,-0.039227,-9.77723,0.001,0.0,0.0,-216,0,454,16.51,0.01,0,99,19.0,1000,1000,1000,1000,0.022,0.021,0.023,0,0,0,167,0.0,0.0006,0.0152,0.0121,790.869,41.49,,,,2026-09-25T17:01:10.173Z,0.002,6.345,0,2026-04-01 14:44:01,17.25,593.0,592.3,0.0,0.0,0.0,0.0,2026-09-25T17:01:10.127Z,51.0,2026-09-25T17:01:10.174Z,3.6,2026-09-25T17:01:10.175Z,3.0,-1,-3,-1000,0,0,0,2026-09-25T17:01:10.124Z,53.5,2026-09-25T17:01:10.126Z,51.6,2026-09-25T17:01:10.123Z,54.7,1790355671400800,141403,2026-09-25T17:01:09.331Z,847.0,,,,0,,,1,2026-09-25T17:01:10.125Z,53.0,16.51,0.01,99,26.1,0.0,0,1198627887,2026-09-25T17:01:10.125Z,52.6,5.246,0.014,1,2026-09-25T17:01:09.330Z,847.7,,,,,,,,,,,,,,,,,,,187,2166.83,2026-09-25T17:01:10.123Z,54.4,0,1500,0,0,2026-09-25T17:01:10.124Z,53.9,1507,1511,1528,1493,255,2026-09-25T17:01:10.126Z,52.0,1.12,-0.39,0.0,0.0,0.01,2026-09-25T17:01:10.126Z,52.3,2026-09-25T17:01:09.330Z,847.4,2026-09-25T17:01:09.931Z,247.1,2026-09-25T17:01:09.930Z,247.4,2026-09-25T17:01:09.930Z,247.7,,
2026-09-25T17:01:10.229Z,2026-09-25T17:01:12.295Z,1.75,35,False,RTL,0,0,-0.862874,0.553477,-172.590358,0.009167,-0.018335,0.009167,39.0187654,-104.8934866,2166.83,0.368,0.0,0.0,-0.01,187.41,-0.011,-0.009,39.0187655,-104.8934866,2166.43,0.0,270.0,32,6,0.66,1.19,0.004,0.018,0.018,0,0.009807,-0.019613,-9.787037,0.0,0.0,0.0,-216,0,454,16.51,0.01,0,99,19.0,1000,1000,1000,1000,0.022,0.021,0.023,0,0,0,167,0.0,0.0006,0.0152,0.0121,790.869,41.49,,,,2026-09-25T17:01:10.223Z,0.002,7.867,0,2026-04-01 14:44:01,17.25,643.0,642.3,0.0,0.0,4.0,4.0,2026-09-25T17:01:10.223Z,6.3,2026-09-25T17:01:10.226Z,3.2,2026-09-25T17:01:10.227Z,2.6,-2,-3,-1001,0,0,0,2026-09-25T17:01:10.225Z,4.7,2026-09-25T17:01:10.126Z,103.1,2026-09-25T17:01:10.223Z,5.9,1790355671400800,141403,2026-09-25T17:01:09.331Z,898.6,,,,0,,,1,2026-09-25T17:01:10.225Z,4.2,16.51,0.01,99,26.1,0.0,0,1198627887,2026-09-25T17:01:10.125Z,104.2,5.246,0.014,1,2026-09-25T17:01:09.330Z,899.2,,,,,,,,,,,,,,,,,,,187,2166.83,2026-09-25T17:01:10.224Z,5.6,0,1500,0,0,2026-09-25T17:01:10.224Z,5.1,1507,1511,1528,1493,255,2026-09-25T17:01:10.126Z,103.5,1.12,-0.39,0.0,0.0,0.01,2026-09-25T17:01:10.126Z,103.8,2026-09-25T17:01:09.330Z,898.9,2026-09-25T17:01:09.931Z,298.6,2026-09-25T17:01:09.930Z,298.9,2026-09-25T17:01:09.930Z,299.2,,
2026-09-25T17:01:10.277Z,2026-09-25T17:01:12.343Z,1.8,36,False,RTL,0,0,-0.863447,0.553477,-172.588639,-0.024637,0.000573,-0.020626,39.0187654,-104.8934866,2166.83,0.368,0.0,0.0,-0.01,187.41,-0.011,-0.009,39.0187655,-104.8934866,2166.43,0.0,270.0,32,6,0.66,1.19,0.004,0.018,0.018,0,0.0,-0.02942,-9.77723,0.0,0.0,0.0,-215,-1,453,16.51,0.01,0,99,19.0,1000,1000,1000,1000,0.022,0.021,0.023,0,0,0,167,0.0,0.0006,0.0152,0.0121,790.869,41.49,,,,2026-09-25T17:01:10.273Z,0.002,5.865,0,2026-04-01 14:44:01,17.25,693.0,692.3,0.0,6.0,81.0,3.0,2026-09-25T17:01:10.273Z,4.2,2026-09-25T17:01:10.274Z,3.2,2026-09-25T17:01:10.275Z,2.6,-2,-3,-1001,0,0,0,2026-09-25T17:01:10.225Z,52.7,2026-09-25T17:01:10.126Z,151.1,2026-09-25T17:01:10.223Z,53.9,1790355671400800,141403,2026-09-25T17:01:09.331Z,946.6,,,,0,,,1,2026-09-25T17:01:10.225Z,52.2,16.51,0.01,99,26.1,0.0,0,1198627887,2026-09-25T17:01:10.125Z,152.2,5.246,0.014,1,2026-09-25T17:01:09.330Z,947.2,,,,,,,,,,,,,,,,,,,187,2166.83,2026-09-25T17:01:10.224Z,53.6,0,1500,0,0,2026-09-25T17:01:10.224Z,53.1,1507,1511,1528,1493,255,2026-09-25T17:01:10.126Z,151.5,1.12,-0.39,0.0,0.0,0.01,2026-09-25T17:01:10.126Z,151.8,2026-09-25T17:01:09.330Z,946.9,2026-09-25T17:01:09.931Z,346.6,2026-09-25T17:01:09.930Z,346.9,2026-09-25T17:01:09.930Z,347.2,,
2026-09-25T17:01:10.332Z,2026-09-25T17:01:12.398Z,1.85,37,False,RTL,0,0,-0.862874,0.553477,-172.586347,0.026356,-0.009167,0.003438,39.0187654,-104.8934866,2166.84,0.37,0.0,0.0,-0.01,187.42,-0.011,-0.009,39.0187655,-104.8934866,2166.43,0.01,138.36,32,6,0.66,1.19,0.003,0.018,0.018,0,0.0,-0.02942,-9.787037,0.0,0.0,0.0,-215,-1,453,16.506,0.01,0,99,19.0,1000,1000,1000,1000,0.022,0.021,0.023,0,0,0,167,0.0,0.0006,0.0152,0.0121,790.869,41.49,-180.0,0.0,0.0,2026-09-25T17:01:10.323Z,0.002,10.733,0,2026-04-01 14:44:01,17.25,743.0,742.3,0.0,6.0,81.0,3.0,2026-09-25T17:01:10.273Z,59.0,2026-09-25T17:01:10.328Z,4.5,2026-09-25T17:01:10.328Z,3.9,-2,-2,-1000,0,0,0,2026-09-25T17:01:10.324Z,7.7,2026-09-25T17:01:10.326Z,5.8,2026-09-25T17:01:10.323Z,9.0,1790355672400861,142403,2026-09-25T17:01:10.332Z,0.6,,,,0,,,1,2026-09-25T17:01:10.325Z,7.2,16.506,0.01,99,26.7,0.0,0,1198627887,2026-09-25T17:01:10.325Z,6.9,5.24,0.016,1,2026-09-25T17:01:10.331Z,1.2,,,,,,,,,,,,,,,,,,,187,2166.84,2026-09-25T17:01:10.323Z,8.6,0,1500,0,0,2026-09-25T17:01:10.324Z,8.2,1507,1511,1528,1493,255,2026-09-25T17:01:10.326Z,6.2,1.12,-0.39,0.0,0.0,0.01,2026-09-25T17:01:10.326Z,6.5,2026-09-25T17:01:10.331Z,0.9,2026-09-25T17:01:09.931Z,401.4,2026-09-25T17:01:09.930Z,401.7,2026-09-25T17:01:09.930Z,402.0,2026-09-25T17:01:10.332Z,0.3
2026-09-25T17:01:10.377Z,2026-09-25T17:01:12.443Z,1.9,38,False,RTL,0,0,-0.861729,0.553477,-172.584055,0.022345,-0.004011,0.014324,39.0187654,-104.8934866,2166.84,0.37,0.0,0.0,-0.01,187.42,-0.011,-0.009,39.0187655,-104.8934866,2166.43,0.01,138.36,32,6,0.66,1.19,0.003,0.018,0.018,0,0.0,-0.039227,-9.787037,0.0,0.0,0.0,-217,-1,454,16.506,0.01,0,99,19.0,1000,1000,1000,1000,0.022,0.021,0.023,0,0,0,167,0.0,0.0006,0.0152,0.0121,790.869,41.49,-180.0,0.0,0.0,2026-09-25T17:01:10.373Z,0.002,5.945,0,2026-04-01 14:44:01,17.25,793.0,792.3,0.0,6.0,81.0,3.0,2026-09-25T17:01:10.273Z,104.2,2026-09-25T17:01:10.374Z,3.2,2026-09-25T17:01:10.375Z,2.6,-2,-2,-1000,0,0,0,2026-09-25T17:01:10.324Z,53.0,2026-09-25T17:01:10.326Z,51.1,2026-09-25T17:01:10.323Z,54.3,1790355672400861,142403,2026-09-25T17:01:10.332Z,45.9,,,,0,,,1,2026-09-25T17:01:10.325Z,52.5,16.506,0.01,99,26.7,0.0,0,1198627887,2026-09-25T17:01:10.325Z,52.2,5.24,0.016,1,2026-09-25T17:01:10.331Z,46.5,,,,,,,,,,,,,,,,,,,187,2166.84,2026-09-25T17:01:10.323Z,53.9,0,1500,0,0,2026-09-25T17:01:10.324Z,53.4,1507,1511,1528,1493,255,2026-09-25T17:01:10.326Z,51.5,1.12,-0.39,0.0,0.0,0.01,2026-09-25T17:01:10.326Z,51.8,2026-09-25T17:01:10.331Z,46.2,2026-09-25T17:01:09.931Z,446.6,2026-09-25T17:01:09.930Z,447.0,2026-09-25T17:01:09.930Z,447.3,2026-09-25T17:01:10.332Z,45.5
2026-09-25T17:01:10.430Z,2026-09-25T17:01:12.496Z,1.95,39,False,RTL,0,0,-0.861156,0.552904,-172.58119,-0.002865,-0.000573,0.011459,39.0187654,-104.8934866,2166.84,0.372,0.0,0.0,-0.01,187.42,-0.011,-0.009,39.0187655,-104.8934866,2166.43,0.01,138.36,32,6,0.66,1.19,0.002,0.018,0.018,0,0.009807,-0.02942,-9.787037,0.0,0.0,0.0,-217,-1,454,16.515,0.0,0,99,19.0,1000,1000,1000,1000,0.022,0.02,0.022,0,0,0,831,0.0046,0.0002,0.0094,0.0043,790.875,41.53,-180.0,0.0,0.0,2026-09-25T17:01:10.423Z,0.002,8.571,0,2026-04-01 14:44:01,17.25,843.0,842.3,0.0,6.0,81.0,3.0,2026-09-25T17:01:10.273Z,156.9,2026-09-25T17:01:10.426Z,4.2,2026-09-25T17:01:10.426Z,3.6,-1,-2,-1000,0,0,0,2026-09-25T17:01:10.424Z,5.7,2026-09-25T17:01:10.326Z,103.8,2026-09-25T17:01:10.423Z,6.9,1790355672400861,142403,2026-09-25T17:01:10.332Z,98.5,,,,0,,,1,2026-09-25T17:01:10.425Z,5.2,16.506,0.01,99,26.7,0.0,0,1198627887,2026-09-25T17:01:10.325Z,104.8,5.24,0.016,1,2026-09-25T17:01:10.331Z,99.1,,,,,,,,,,,,,,,,,,,187,2166.84,2026-09-25T17:01:10.423Z,6.6,0,1500,0,0,2026-09-25T17:01:10.424Z,6.1,1507,1511,1528,1493,255,2026-09-25T17:01:10.326Z,104.1,1.12,-0.39,0.0,0.0,0.01,2026-09-25T17:01:10.326Z,104.4,2026-09-25T17:01:10.331Z,98.8,2026-09-25T17:01:10.430Z,0.3,2026-09-25T17:01:10.429Z,0.6,2026-09-25T17:01:10.429Z,0.9,2026-09-25T17:01:10.332Z,98.2
2026-09-25T17:01:10.477Z,2026-09-25T17:01:12.543Z,2.0,40,False,RTL,0,0,-0.860583,0.553477,-172.577753,0.002865,0.003438,0.01547,39.0187654,-104.8934866,2166.84,0.372,0.0,0.0,-0.01,187.42,-0.011,-0.009,39.0187655,-104.8934866,2166.43,0.01,138.36,32,6,0.66,1.19,0.002,0.018,0.018,0,0.009807,-0.019613,-9.77723,0.0,0.0,0.0,-215,-1,454,16.515,0.0,0,99,19.0,1000,1000,1000,1000,0.022,0.02,0.022,0,0,0,831,0.0046,0.0002,0.0094,0.0043,790.875,41.53,-180.0,0.0,0.0,2026-09-25T17:01:10.473Z,0.002,5.562,0,2026-04-01 14:44:01,17.25,893.0,892.3,0.0,6.0,81.0,3.0,2026-09-25T17:01:10.273Z,203.9,2026-09-25T17:01:10.474Z,3.3,2026-09-25T17:01:10.474Z,2.6,-1,-2,-1000,0,0,0,2026-09-25T17:01:10.424Z,52.7,2026-09-25T17:01:10.326Z,150.7,2026-09-25T17:01:10.423Z,53.9,1790355672400861,142403,2026-09-25T17:01:10.332Z,145.5,,,,0,,,1,2026-09-25T17:01:10.425Z,52.1,16.506,0.01,99,26.7,0.0,0,1198627887,2026-09-25T17:01:10.325Z,151.8,5.24,0.016,1,2026-09-25T17:01:10.331Z,146.1,,,,,,,,,,,,,,,,,,,187,2166.84,2026-09-25T17:01:10.423Z,53.6,0,1500,0,0,2026-09-25T17:01:10.424Z,53.1,1507,1511,1528,1493,255,2026-09-25T17:01:10.326Z,151.1,1.12,-0.39,0.0,0.0,0.01,2026-09-25T17:01:10.326Z,151.4,2026-09-25T17:01:10.331Z,145.8,2026-09-25T17:01:10.430Z,47.2,2026-09-25T17:01:10.429Z,47.6,2026-09-25T17:01:10.429Z,47.9,2026-09-25T17:01:10.332Z,145.2
2026-09-25T17:01:10.530Z,2026-09-25T17:01:12.596Z,2.05,41,False,RTL,0,0,-0.860583,0.551758,-172.576607,-0.005157,-0.042972,0.010886,39.0187654,-104.8934866,2166.84,0.375,0.0,0.0,-0.01,187.43,-0.011,-0.009,39.0187655,-104.8934866,2166.43,0.0,329.03,32,6,0.66,1.19,0.002,0.018,0.018,0,0.009807,-0.02942,-9.77723,0.0,0.0,0.0,-215,-1,454,16.502,0.01,0,99,19.0,1000,1000,1000,1000,0.022,0.02,0.022,0,0,0,831,0.0046,0.0002,0.0094,0.0043,790.875,41.53,-180.0,0.0,0.0,2026-09-25T17:01:10.523Z,0.002,8.975,0,2026-04-01 14:44:01,17.25,943.0,942.3,0.0,6.0,81.0,3.0,2026-09-25T17:01:10.273Z,257.3,2026-09-25T17:01:10.527Z,3.2,2026-09-25T17:01:10.528Z,2.6,-1,-2,-1000,0,0,0,2026-09-25T17:01:10.524Z,6.1,2026-09-25T17:01:10.526Z,4.2,2026-09-25T17:01:10.523Z,7.3,1790355672400861,142403,2026-09-25T17:01:10.332Z,198.9,,,,0,,,1,2026-09-25T17:01:10.525Z,5.5,16.502,0.01,99,27.5,0.0,0,1198627887,2026-09-25T17:01:10.525Z,5.2,5.24,0.016,1,2026-09-25T17:01:10.331Z,199.5,,,,,,,,,,,,,,,,,,,187,2166.84,2026-09-25T17:01:10.523Z,7.0,0,1500,0,0,2026-09-25T17:01:10.524Z,6.5,1507,1511,1528,1493,255,2026-09-25T17:01:10.526Z,4.5,1.12,-0.39,0.0,0.0,0.01,2026-09-25T17:01:10.526Z,4.9,2026-09-25T17:01:10.331Z,199.2,2026-09-25T17:01:10.430Z,100.6,2026-09-25T17:01:10.429Z,101.0,2026-09-25T17:01:10.429Z,101.3,2026-09-25T17:01:10.332Z,198.6
2026-09-25T17:01:10.577Z,2026-09-25T17:01:12.643Z,2.1,42,False,RTL,0,0,-0.861729,0.551758,-172.576034,-0.006875,0.001146,0.007448,39.0187654,-104.8934866,2166.84,0.375,0.0,0.0,-0.01,187.43,-0.011,-0.009,39.0187655,-104.8934866,2166.43,0.0,329.03,32,6,0.66,1.19,0.002,0.018,0.018,0,0.0,-0.019613,-9.77723,0.001,0.0,0.0,-217,-1,454,16.502,0.01,0,99,19.0,1000,1000,1000,1000,0.022,0.02,0.022,0,0,0,831,0.0046,0.0002,0.0094,0.0043,790.875,41.53,-180.0,0.0,0.0,2026-09-25T17:01:10.573Z,0.002,5.55,0,2026-04-01 14:44:01,17.25,993.0,992.3,0.0,6.0,81.0,3.0,2026-09-25T17:01:10.273Z,303.8,2026-09-25T17:01:10.574Z,3.2,2026-09-25T17:01:10.574Z,2.6,-1,-2,-1000,0,0,0,2026-09-25T17:01:10.524Z,52.7,2026-09-25T17:01:10.526Z,50.8,2026-09-25T17:01:10.523Z,53.9,1790355672400861,142403,2026-09-25T17:01:10.332Z,245.5,,,,0,,,1,2026-09-25T17:01:10.525Z,52.1,16.502,0.01,99,27.5,0.0,0,1198627887,2026-09-25T17:01:10.525Z,51.8,5.24,0.016,1,2026-09-25T17:01:10.331Z,246.1,,,,,,,,,,,,,,,,,,,187,2166.84,2026-09-25T17:01:10.523Z,53.6,0,1500,0,0,2026-09-25T17:01:10.524Z,53.1,1507,1511,1528,1493,255,2026-09-25T17:01:10.526Z,51.1,1.12,-0.39,0.0,0.0,0.01,2026-09-25T17:01:10.526Z,51.5,2026-09-25T17:01:10.331Z,245.8,2026-09-25T17:01:10.430Z,147.2,2026-09-25T17:01:10.429Z,147.5,2026-09-25T17:01:10.429Z,147.9,2026-09-25T17:01:10.332Z,245.1
2026-09-25T17:01:10.632Z,2026-09-25T17:01:12.698Z,2.15,43,False,RTL,0,0,-0.86001,0.552331,-172.574888,0.021199,0.036669,-0.006303,39.0187654,-104.8934866,2166.84,0.376,0.0,0.0,-0.01,187.43,-0.011,-0.009,39.0187655,-104.8934866,2166.43,0.0,329.03,32,6,0.66,1.19,0.002,0.018,0.018,0,0.0,-0.02942,-9.77723,0.001,0.0,0.0,-217,-1,454,16.499,0.01,0,99,18.75,1000,1000,1000,1000,0.022,0.02,0.022,0,0,0,831,0.0046,0.0002,0.0094,0.0043,790.875,41.53,-180.0,0.0,0.0,2026-09-25T17:01:10.623Z,0.002,11.18,0,2026-04-01 14:44:02,17.25,-9.1,-9.9,0.0,6.0,81.0,3.0,2026-09-25T17:01:10.273Z,359.4,2026-09-25T17:01:10.626Z,6.7,2026-09-25T17:01:10.626Z,6.1,0,-3,-1000,0,0,0,2026-09-25T17:01:10.624Z,8.2,2026-09-25T17:01:10.526Z,106.3,2026-09-25T17:01:10.623Z,9.5,1790355672400861,142403,2026-09-25T17:01:10.332Z,301.0,,,,0,,,1,2026-09-25T17:01:10.625Z,7.7,16.502,0.01,99,27.5,0.0,0,1198627887,2026-09-25T17:01:10.525Z,107.3,5.24,0.016,1,2026-09-25T17:01:10.331Z,301.6,,,,,,,,,,,,,,,,,,,187,2166.84,2026-09-25T17:01:10.623Z,9.1,0,1500,0,0,2026-09-25T17:01:10.624Z,8.6,1507,1511,1528,1493,255,2026-09-25T17:01:10.526Z,106.7,1.12,-0.39,0.0,0.0,0.01,2026-09-25T17:01:10.526Z,107.0,2026-09-25T17:01:10.331Z,301.3,2026-09-25T17:01:10.430Z,202.8,2026-09-25T17:01:10.429Z,203.1,2026-09-25T17:01:10.429Z,203.4,2026-09-25T17:01:10.332Z,300.7
2026-09-25T17:01:10.677Z,2026-09-25T17:01:12.743Z,2.2,44,False,RTL,0,0,-0.860583,0.552904,-172.576034,-0.014324,0.005157,-0.029794,39.0187654,-104.8934866,2166.84,0.376,0.0,0.0,-0.01,187.43,-0.011,-0.009,39.0187655,-104.8934866,2166.43,0.0,329.03,32,6,0.66,1.19,0.002,0.018,0.018,0,0.0,-0.019613,-9.796843,0.001,0.0,0.0,-216,-1,454,16.499,0.01,0,99,18.75,1000,1000,1000,1000,0.022,0.02,0.022,0,0,0,831,0.0046,0.0002,0.0094,0.0043,790.875,41.53,-180.0,0.0,0.0,2026-09-25T17:01:10.673Z,0.002,5.638,0,2026-04-01 14:44:02,17.25,40.9,40.1,0.0,6.0,81.0,3.0,2026-09-25T17:01:10.273Z,403.9,2026-09-25T17:01:10.674Z,3.3,2026-09-25T17:01:10.674Z,2.6,0,-3,-1000,0,0,0,2026-09-25T17:01:10.624Z,52.8,2026-09-25T17:01:10.526Z,150.8,2026-09-25T17:01:10.623Z,54.0,1790355672400861,142403,2026-09-25T17:01:10.332Z,345.6,,,,0,,,1,2026-09-25T17:01:10.625Z,52.2,16.502,0.01,99,27.5,0.0,0,1198627887,2026-09-25T17:01:10.525Z,151.9,5.24,0.016,1,2026-09-25T17:01:10.331Z,346.2,,,,,,,,,,,,,,,,,,,187,2166.84,2026-09-25T17:01:10.623Z,53.7,0,1500,0,0,2026-09-25T17:01:10.624Z,53.2,1507,1511,1528,1493,255,2026-09-25T17:01:10.526Z,151.2,1.12,-0.39,0.0,0.0,0.01,2026-09-25T17:01:10.526Z,151.5,2026-09-25T17:01:10.331Z,345.9,2026-09-25T17:01:10.430Z,247.3,2026-09-25T17:01:10.429Z,247.6,2026-09-25T17:01:10.429Z,248.0,2026-09-25T17:01:10.332Z,345.2
2026-09-25T17:01:10.730Z,2026-09-25T17:01:12.796Z,2.25,45,False,RTL,0,0,-0.861729,0.552904,-172.576607,0.012032,-0.008594,0.004584,39.0187654,-104.8934866,2166.84,0.377,0.0,0.0,-0.01,187.43,-0.011,-0.009,39.0187655,-104.8934866,2166.45,0.01,53.13,32,6,0.66,1.19,0.001,0.017,0.017,0,0.0,-0.039227,-9.796843,0.001,0.0,0.0,-216,-1,454,16.51,0.01,0,99,18.75,1000,1000,1000,1000,0.022,0.02,0.022,0,0,0,831,0.0046,0.0002,0.0094,0.0043,790.875,41.53,-180.0,0.0,0.0,2026-09-25T17:01:10.723Z,0.002,9.06,0,2026-04-01 14:44:02,17.25,90.9,90.1,0.0,6.0,81.0,3.0,2026-09-25T17:01:10.273Z,457.3,2026-09-25T17:01:10.727Z,3.3,2026-09-25T17:01:10.728Z,2.6,-2,-2,-1000,0,0,0,2026-09-25T17:01:10.724Z,6.2,2026-09-25T17:01:10.726Z,4.2,2026-09-25T17:01:10.723Z,7.4,1790355672400861,142403,2026-09-25T17:01:10.332Z,399.0,,,,0,,,1,2026-09-25T17:01:10.725Z,5.6,16.51,0.01,99,26.4,0.0,0,1198627887,2026-09-25T17:01:10.725Z,5.2,5.24,0.016,1,2026-09-25T17:01:10.331Z,399.6,,,,,,,,,,,,,,,,,,,187,2166.84,2026-09-25T17:01:10.723Z,7.1,0,1500,0,0,2026-09-25T17:01:10.724Z,6.6,1507,1511,1528,1493,255,2026-09-25T17:01:10.726Z,4.5,1.12,-0.39,0.0,0.0,0.01,2026-09-25T17:01:10.726Z,4.9,2026-09-25T17:01:10.331Z,399.3,2026-09-25T17:01:10.430Z,300.7,2026-09-25T17:01:10.429Z,301.1,2026-09-25T17:01:10.429Z,301.4,2026-09-25T17:01:10.332Z,398.7
2026-09-25T17:01:10.777Z,2026-09-25T17:01:12.843Z,2.3,46,False,RTL,0,0,-0.861156,0.552904,-172.578326,0.004584,0.00573,-0.001146,39.0187654,-104.8934866,2166.84,0.377,0.0,0.0,-0.01,187.43,-0.011,-0.009,39.0187655,-104.8934866,2166.45,0.01,53.13,32,6,0.66,1.19,0.001,0.017,0.017,0,0.009807,-0.02942,-9.77723,0.0,0.0,0.0,-217,-1,454,16.51,0.01,0,99,18.75,1000,1000,1000,1000,0.022,0.02,0.022,0,0,0,831,0.0046,0.0002,0.0094,0.0043,790.875,41.53,-180.0,0.0,0.0,2026-09-25T17:01:10.773Z,0.002,5.512,0,2026-04-01 14:44:02,17.25,140.9,140.1,0.0,6.0,81.0,3.0,2026-09-25T17:01:10.273Z,503.8,2026-09-25T17:01:10.774Z,3.2,2026-09-25T17:01:10.774Z,2.6,-2,-2,-1000,0,0,0,2026-09-25T17:01:10.724Z,52.6,2026-09-25T17:01:10.726Z,50.7,2026-09-25T17:01:10.723Z,53.9,1790355672400861,142403,2026-09-25T17:01:10.332Z,445.4,,,,0,,,1,2026-09-25T17:01:10.725Z,52.0,16.51,0.01,99,26.4,0.0,0,1198627887,2026-09-25T17:01:10.725Z,51.7,5.24,0.016,1,2026-09-25T17:01:10.331Z,446.1,,,,,,,,,,,,,,,,,,,187,2166.84,2026-09-25T17:01:10.723Z,53.5,0,1500,0,0,2026-09-25T17:01:10.724Z,53.1,1507,1511,1528,1493,255,2026-09-25T17:01:10.726Z,51.0,1.12,-0.39,0.0,0.0,0.01,2026-09-25T17:01:10.726Z,51.3,2026-09-25T17:01:10.331Z,445.8,2026-09-25T17:01:10.430Z,347.2,2026-09-25T17:01:10.429Z,347.5,2026-09-25T17:01:10.429Z,347.8,2026-09-25T17:01:10.332Z,445.1
2026-09-25T17:01:10.829Z,2026-09-25T17:01:12.895Z,2.35,47,False,RTL,0,0,-0.861156,0.552331,-172.578326,-0.026929,-0.038388,-0.005157,39.0187654,-104.8934866,2166.85,0.38,0.0,0.0,-0.01,187.43,-0.011,-0.009,39.0187655,-104.8934866,2166.45,0.01,53.13,32,6,0.66,1.19,0.001,0.018,0.018,0,0.009807,-0.039227,-9.787037,0.001,0.0,0.0,-217,-1,454,16.513,0.01,0,99,18.75,1000,1000,1000,1000,0.022,0.02,0.022,0,0,0,831,0.0046,0.0002,0.0094,0.0043,790.875,41.53,-180.0,0.0,0.0,2026-09-25T17:01:10.823Z,0.002,7.607,0,2026-04-01 14:44:02,17.25,190.9,190.1,0.0,6.0,81.0,3.0,2026-09-25T17:01:10.273Z,555.9,2026-09-25T17:01:10.826Z,3.2,2026-09-25T17:01:10.826Z,2.6,-1,-3,-1000,0,0,0,2026-09-25T17:01:10.824Z,4.7,2026-09-25T17:01:10.726Z,102.7,2026-09-25T17:01:10.823Z,6.0,1790355672400861,142403,2026-09-25T17:01:10.332Z,497.5,,,,0,,,1,2026-09-25T17:01:10.825Z,4.2,16.51,0.01,99,26.4,0.0,0,1198627887,2026-09-25T17:01:10.725Z,103.8,5.24,0.016,1,2026-09-25T17:01:10.331Z,498.2,,,,,,,,,,,,,,,,,,,187,2166.85,2026-09-25T17:01:10.823Z,5.6,0,1500,0,0,2026-09-25T17:01:10.824Z,5.1,1507,1511,1528,1493,255,2026-09-25T17:01:10.726Z,103.1,1.12,-0.39,0.0,0.0,0.01,2026-09-25T17:01:10.726Z,103.4,2026-09-25T17:01:10.331Z,497.8,2026-09-25T17:01:10.430Z,399.3,2026-09-25T17:01:10.429Z,399.6,2026-09-25T17:01:10.429Z,399.9,2026-09-25T17:01:10.332Z,497.2
2026-09-25T17:01:10.877Z,2026-09-25T17:01:12.943Z,2.4,48,False,RTL,0,0,-0.860583,0.552331,-172.578326,-0.008021,0.008594,-0.016043,39.0187654,-104.8934866,2166.85,0.38,0.0,0.0,-0.01,187.43,-0.011,-0.009,39.0187655,-104.8934866,2166.45,0.01,53.13,32,6,0.66,1.19,0.001,0.018,0.018,0,0.009807,-0.039227,-9.787037,0.0,0.0,0.0,-216,0,454,16.513,0.01,0,99,18.75,1000,1000,1000,1000,0.022,0.02,0.022,0,0,0,831,0.0046,0.0002,0.0094,0.0043,790.875,41.53,-180.0,0.0,0.0,2026-09-25T17:01:10.873Z,0.002,5.517,0,2026-04-01 14:44:02,17.25,240.9,240.1,0.0,6.0,81.0,3.0,2026-09-25T17:01:10.273Z,603.8,2026-09-25T17:01:10.874Z,3.2,2026-09-25T17:01:10.874Z,2.6,-1,-3,-1000,0,0,0,2026-09-25T17:01:10.824Z,52.6,2026-09-25T17:01:10.726Z,150.7,2026-09-25T17:01:10.823Z,53.9,1790355672400861,142403,2026-09-25T17:01:10.332Z,545.5,,,,0,,,1,2026-09-25T17:01:10.825Z,52.1,16.51,0.01,99,26.4,0.0,0,1198627887,2026-09-25T17:01:10.725Z,151.7,5.24,0.016,1,2026-09-25T17:01:10.331Z,546.1,,,,,,,,,,,,,,,,,,,187,2166.85,2026-09-25T17:01:10.823Z,53.5,0,1500,0,0,2026-09-25T17:01:10.824Z,53.0,1507,1511,1528,1493,255,2026-09-25T17:01:10.726Z,151.0,1.12,-0.39,0.0,0.0,0.01,2026-09-25T17:01:10.726Z,151.3,2026-09-25T17:01:10.331Z,545.8,2026-09-25T17:01:10.430Z,447.2,2026-09-25T17:01:10.429Z,447.5,2026-09-25T17:01:10.429Z,447.8,2026-09-25T17:01:10.332Z,545.1
2026-09-25T17:01:10.931Z,2026-09-25T17:01:12.997Z,2.45,49,False,RTL,0,0,-0.861729,0.553477,-172.576034,-0.022918,0.00573,-0.005157,39.0187654,-104.8934866,2166.85,0.384,0.0,0.0,-0.01,187.43,-0.011,-0.009,39.0187654,-104.8934866,2166.45,0.01,213.69,32,6,0.66,1.19,0.001,0.018,0.018,0,0.0,-0.02942,-9.77723,0.0,0.0,0.0,-216,0,454,16.517,0.0,0,99,18.75,1000,1000,1000,1000,0.022,0.023,0.025,0,0,0,831,0.0203,0.0029,0.0315,0.0209,790.859,41.57,-180.0,0.0,0.0,2026-09-25T17:01:10.923Z,0.002,9.907,0,2026-04-01 14:44:02,17.25,290.9,290.1,0.0,6.0,81.0,3.0,2026-09-25T17:01:10.273Z,658.2,2026-09-25T17:01:10.927Z,4.2,2026-09-25T17:01:10.928Z,3.6,-1,-3,-1000,0,0,0,2026-09-25T17:01:10.924Z,7.0,2026-09-25T17:01:10.926Z,5.2,2026-09-25T17:01:10.923Z,8.3,1790355672400861,142403,2026-09-25T17:01:10.332Z,599.8,,,,0,,,1,2026-09-25T17:01:10.925Z,6.5,16.517,0.0,99,26.6,0.0,0,1198627887,2026-09-25T17:01:10.925Z,6.2,5.24,0.016,1,2026-09-25T17:01:10.331Z,600.4,,,,,,,,,,,,,,,,,,,187,2166.85,2026-09-25T17:01:10.923Z,7.9,0,1500,0,0,2026-09-25T17:01:10.924Z,7.4,1507,1511,1528,1493,255,2026-09-25T17:01:10.926Z,5.5,1.12,-0.39,0.0,0.0,0.01,2026-09-25T17:01:10.925Z,5.9,2026-09-25T17:01:10.331Z,600.1,2026-09-25T17:01:10.931Z,0.3,2026-09-25T17:01:10.931Z,0.6,2026-09-25T17:01:10.930Z,0.9,2026-09-25T17:01:10.332Z,599.5
2026-09-25T17:01:10.977Z,2026-09-25T17:01:13.043Z,2.5,50,False,RTL,0,0,-0.861729,0.553477,-172.573742,-0.007448,0.028648,0.005157,39.0187654,-104.8934866,2166.85,0.384,0.0,0.0,-0.01,187.43,-0.011,-0.009,39.0187654,-104.8934866,2166.45,0.01,213.69,32,6,0.66,1.19,0.001,0.018,0.018,0,0.009807,-0.02942,-9.77723,0.0,0.0,0.0,-217,-1,454,16.517,0.0,0,99,18.75,1000,1000,1000,1000,0.022,0.023,0.025,0,0,0,831,0.0203,0.0029,0.0315,0.0209,790.859,41.57,-180.0,0.0,0.0,2026-09-25T17:01:10.973Z,0.002,5.563,0,2026-04-01 14:44:02,17.25,340.9,340.1,0.0,6.0,81.0,3.0,2026-09-25T17:01:10.273Z,703.9,2026-09-25T17:01:10.974Z,3.2,2026-09-25T17:01:10.974Z,2.6,-1,-3,-1000,0,0,0,2026-09-25T17:01:10.924Z,52.7,2026-09-25T17:01:10.926Z,50.8,2026-09-25T17:01:10.923Z,53.9,1790355672400861,142403,2026-09-25T17:01:10.332Z,645.5,,,,0,,,1,2026-09-25T17:01:10.925Z,52.2,16.517,0.0,99,26.6,0.0,0,1198627887,2026-09-25T17:01:10.925Z,51.8,5.24,0.016,1,2026-09-25T17:01:10.331Z,646.1,,,,,,,,,,,,,,,,,,,187,2166.85,2026-09-25T17:01:10.923Z,53.6,0,1500,0,0,2026-09-25T17:01:10.924Z,53.1,1507,1511,1528,1493,255,2026-09-25T17:01:10.926Z,51.2,1.12,-0.39,0.0,0.0,0.01,2026-09-25T17:01:10.925Z,51.5,2026-09-25T17:01:10.331Z,645.8,2026-09-25T17:01:10.931Z,45.9,2026-09-25T17:01:10.931Z,46.2,2026-09-25T17:01:10.930Z,46.6,2026-09-25T17:01:10.332Z,645.2
2026-09-25T17:01:11.030Z,2026-09-25T17:01:13.096Z,2.55,51,False,RTL,0,0,-0.861729,0.55405,-172.570304,0.00573,0.01547,-0.017189,39.0187654,-104.8934866,2166.85,0.386,0.0,0.0,-0.01,187.43,-0.011,-0.009,39.0187654,-104.8934866,2166.45,0.01,213.69,32,6,0.66,1.19,0.001,0.019,0.019,0,0.009807,-0.02942,-9.787037,0.0,0.0,0.0,-217,-1,454,16.519,0.01,0,99,18.75,1000,1000,1000,1000,0.022,0.023,0.025,0,0,0,831,0.0203,0.0029,0.0315,0.0209,790.859,41.57,-180.0,0.0,0.0,2026-09-25T17:01:11.023Z,0.002,8.473,0,2026-04-01 14:44:02,17.25,390.9,390.1,0.0,0.0,0.0,0.0,2026-09-25T17:01:11.026Z,4.3,2026-09-25T17:01:11.027Z,3.3,2026-09-25T17:01:11.027Z,2.7,-1,-3,-1001,0,0,0,2026-09-25T17:01:11.024Z,5.5,2026-09-25T17:01:10.926Z,103.7,2026-09-25T17:01:11.023Z,6.8,1790355672400861,142403,2026-09-25T17:01:10.332Z,698.4,,,,0,,,1,2026-09-25T17:01:11.025Z,4.9,16.517,0.0,99,26.6,0.0,0,1198627887,2026-09-25T17:01:10.925Z,104.7,5.24,0.016,1,2026-09-25T17:01:10.331Z,699.0,,,,,,,,,,,,,,,,,,,187,2166.85,2026-09-25T17:01:11.023Z,6.4,0,1500,0,0,2026-09-25T17:01:11.024Z,5.9,1507,1511,1528,1493,255,2026-09-25T17:01:10.926Z,104.1,1.12,-0.39,0.0,0.0,0.01,2026-09-25T17:01:10.925Z,104.4,2026-09-25T17:01:10.331Z,698.7,2026-09-25T17:01:10.931Z,98.8,2026-09-25T17:01:10.931Z,99.1,2026-09-25T17:01:10.930Z,99.5,2026-09-25T17:01:10.332Z,698.1
2026-09-25T17:01:11.077Z,2026-09-25T17:01:13.143Z,2.6,52,False,RTL,0,0,-0.861729,0.553477,-172.566866,0.008021,-0.016616,-0.001146,39.0187654,-104.8934866,2166.85,0.386,0.0,0.0,-0.01,187.43,-0.011,-0.009,39.0187654,-104.8934866,2166.45,0.01,213.69,32,6,0.66,1.19,0.001,0.019,0.019,0,0.0,-0.039227,-9.787037,0.0,0.0,0.0,-216,0,454,16.519,0.01,0,99,18.75,1000,1000,1000,1000,0.022,0.023,0.025,0,0,0,831,0.0203,0.0029,0.0315,0.0209,790.859,41.57,-180.0,0.0,0.0,2026-09-25T17:01:11.073Z,0.002,5.551,0,2026-04-01 14:44:02,17.25,440.9,440.1,0.0,0.0,0.0,0.0,2026-09-25T17:01:11.026Z,51.4,2026-09-25T17:01:11.074Z,3.2,2026-09-25T17:01:11.074Z,2.6,-1,-3,-1001,0,0,0,2026-09-25T17:01:11.024Z,52.6,2026-09-25T17:01:10.926Z,150.8,2026-09-25T17:01:11.023Z,53.9,1790355672400861,142403,2026-09-25T17:01:10.332Z,745.5,,,,0,,,1,2026-09-25T17:01:11.025Z,52.0,16.517,0.0,99,26.6,0.0,0,1198627887,2026-09-25T17:01:10.925Z,151.8,5.24,0.016,1,2026-09-25T17:01:10.331Z,746.1,,,,,,,,,,,,,,,,,,,187,2166.85,2026-09-25T17:01:11.023Z,53.5,0,1500,0,0,2026-09-25T17:01:11.024Z,53.0,1507,1511,1528,1493,255,2026-09-25T17:01:10.926Z,151.2,1.12,-0.39,0.0,0.0,0.01,2026-09-25T17:01:10.925Z,151.5,2026-09-25T17:01:10.331Z,745.8,2026-09-25T17:01:10.931Z,145.9,2026-09-25T17:01:10.931Z,146.2,2026-09-25T17:01:10.930Z,146.6,2026-09-25T17:01:10.332Z,745.2
2026-09-25T17:01:11.130Z,2026-09-25T17:01:13.196Z,2.65,53,False,RTL,0,0,-0.862301,0.553477,-172.561137,0.003438,-0.004584,0.028075,39.0187654,-104.8934866,2166.85,0.386,0.0,0.0,-0.01,187.44,-0.011,-0.009,39.0187655,-104.8934866,2166.45,0.0,180.0,32,6,0.66,1.19,0.001,0.018,0.018,0,0.009807,-0.019613,-9.787037,0.0,0.0,0.0,-216,0,454,16.508,0.01,0,99,18.75,1000,1000,1000,1000,0.022,0.023,0.025,0,0,0,831,0.0203,0.0029,0.0315,0.0209,790.859,41.57,-180.0,0.0,0.0,2026-09-25T17:01:11.123Z,0.002,8.933,0,2026-04-01 14:44:02,17.25,490.9,490.1,0.0,0.0,0.0,0.0,2026-09-25T17:01:11.026Z,104.7,2026-09-25T17:01:11.127Z,3.3,2026-09-25T17:01:11.128Z,2.6,-1,-2,-1000,0,0,0,2026-09-25T17:01:11.124Z,6.1,2026-09-25T17:01:11.126Z,4.2,2026-09-25T17:01:11.123Z,7.3,1790355672400861,142403,2026-09-25T17:01:10.332Z,798.9,,,,0,,,1,2026-09-25T17:01:11.125Z,5.5,16.508,0.01,99,26.8,0.0,0,1198627887,2026-09-25T17:01:11.125Z,5.2,5.24,0.016,1,2026-09-25T17:01:10.331Z,799.5,,,,,,,,,,,,,,,,,,,187,2166.85,2026-09-25T17:01:11.123Z,6.9,0,1500,0,0,2026-09-25T17:01:11.124Z,6.5,1507,1511,1528,1493,255,2026-09-25T17:01:11.126Z,4.5,1.12,-0.39,0.0,0.0,0.01,2026-09-25T17:01:11.125Z,4.9,2026-09-25T17:01:10.331Z,799.2,2026-09-25T17:01:10.931Z,199.3,2026-09-25T17:01:10.931Z,199.6,2026-09-25T17:01:10.930Z,199.9,2026-09-25T17:01:10.332Z,798.5
2026-09-25T17:01:11.177Z,2026-09-25T17:01:13.243Z,2.7,54,False,RTL,0,0,-0.861729,0.554623,-172.556553,0.001146,0.008594,0.002292,39.0187654,-104.8934866,2166.85,0.386,0.0,0.0,-0.01,187.44,-0.011,-0.009,39.0187655,-104.8934866,2166.45,0.0,180.0,32,6,0.66,1.19,0.001,0.018,0.018,0,0.009807,-0.02942,-9.77723,0.001,0.0,0.0,-216,0,454,16.508,0.01,0,99,18.75,1000,1000,1000,1000,0.022,0.023,0.025,0,0,0,831,0.0203,0.0029,0.0315,0.0209,790.859,41.57,-180.0,0.0,0.0,2026-09-25T17:01:11.173Z,0.002,5.51,0,2026-04-01 14:44:02,17.25,540.9,540.1,0.0,0.0,0.0,0.0,2026-09-25T17:01:11.026Z,151.3,2026-09-25T17:01:11.174Z,3.2,2026-09-25T17:01:11.174Z,2.6,-1,-2,-1000,0,0,0,2026-09-25T17:01:11.124Z,52.6,2026-09-25T17:01:11.126Z,50.8,2026-09-25T17:01:11.123Z,53.9,1790355672400861,142403,2026-09-25T17:01:10.332Z,845.4,,,,0,,,1,2026-09-25T17:01:11.125Z,52.1,16.508,0.01,99,26.8,0.0,0,1198627887,2026-09-25T17:01:11.125Z,51.8,5.24,0.016,1,2026-09-25T17:01:10.331Z,846.1,,,,,,,,,,,,,,,,,,,187,2166.85,2026-09-25T17:01:11.123Z,53.5,0,1500,0,0,2026-09-25T17:01:11.124Z,53.1,1507,1511,1528,1493,255,2026-09-25T17:01:11.126Z,51.1,1.12,-0.39,0.0,0.0,0.01,2026-09-25T17:01:11.125Z,51.5,2026-09-25T17:01:10.331Z,845.8,2026-09-25T17:01:10.931Z,245.9,2026-09-25T17:01:10.931Z,246.2,2026-09-25T17:01:10.930Z,246.5,2026-09-25T17:01:10.332Z,845.1
2026-09-25T17:01:11.229Z,2026-09-25T17:01:13.295Z,2.75,55,False,RTL,0,0,-0.861156,0.555769,-172.55197,0.010313,0.019481,0.002292,39.0187654,-104.8934866,2166.85,0.385,0.0,0.0,-0.01,187.45,-0.011,-0.009,39.0187655,-104.8934866,2166.45,0.0,180.0,32,6,0.66,1.19,0.001,0.017,0.017,0,0.0,-0.019613,-9.787037,0.0,0.0,0.0,-216,0,454,16.501,0.0,0,99,18.75,1000,1000,1000,1000,0.022,0.023,0.025,0,0,0,831,0.0203,0.0029,0.0315,0.0209,790.859,41.57,-180.0,0.0,0.0,2026-09-25T17:01:11.223Z,0.002,7.917,0,2026-04-01 14:44:02,17.25,590.9,590.1,0.0,0.0,4.0,4.0,2026-09-25T17:01:11.223Z,6.3,2026-09-25T17:01:11.226Z,3.2,2026-09-25T17:01:11.227Z,2.6,-1,-4,-1000,0,0,0,2026-09-25T17:01:11.225Z,4.7,2026-09-25T17:01:11.126Z,103.2,2026-09-25T17:01:11.223Z,5.9,1790355672400861,142403,2026-09-25T17:01:10.332Z,897.8,,,,0,,,1,2026-09-25T17:01:11.225Z,4.2,16.508,0.01,99,26.8,0.0,0,1198627887,2026-09-25T17:01:11.125Z,104.2,5.24,0.016,1,2026-09-25T17:01:10.331Z,898.5,,,,,,,,,,,,,,,,,,,187,2166.85,2026-09-25T17:01:11.224Z,5.6,0,1500,0,0,2026-09-25T17:01:11.224Z,5.1,1507,1511,1528,1493,255,2026-09-25T17:01:11.126Z,103.5,1.12,-0.39,0.0,0.0,0.01,2026-09-25T17:01:11.125Z,103.9,2026-09-25T17:01:10.331Z,898.2,2026-09-25T17:01:10.931Z,298.3,2026-09-25T17:01:10.931Z,298.6,2026-09-25T17:01:10.930Z,298.9,2026-09-25T17:01:10.332Z,897.5
2026-09-25T17:01:11.277Z,2026-09-25T17:01:13.343Z,2.8,56,False,RTL,0,0,-0.860583,0.555196,-172.548532,0.022918,0.011459,-0.032086,39.0187654,-104.8934866,2166.85,0.385,0.0,0.0,-0.01,187.45,-0.011,-0.009,39.0187655,-104.8934866,2166.45,0.0,180.0,32,6,0.66,1.19,0.001,0.017,0.017,0,0.009807,-0.02942,-9.77723,0.001,0.0,0.0,-216,-1,454,16.501,0.0,0,99,18.75,1000,1000,1000,1000,0.022,0.023,0.025,0,0,0,831,0.0203,0.0029,0.0315,0.0209,790.859,41.57,-180.0,0.0,0.0,2026-09-25T17:01:11.273Z,0.002,5.856,0,2026-04-01 14:44:02,17.25,640.9,640.1,0.0,6.0,81.0,3.0,2026-09-25T17:01:11.273Z,4.2,2026-09-25T17:01:11.274Z,3.2,2026-09-25T17:01:11.275Z,2.6,-1,-4,-1000,0,0,0,2026-09-25T17:01:11.225Z,52.6,2026-09-25T17:01:11.126Z,151.1,2026-09-25T17:01:11.223Z,53.9,1790355672400861,142403,2026-09-25T17:01:10.332Z,945.8,,,,0,,,1,2026-09-25T17:01:11.225Z,52.1,16.508,0.01,99,26.8,0.0,0,1198627887,2026-09-25T17:01:11.125Z,152.1,5.24,0.016,1,2026-09-25T17:01:10.331Z,946.4,,,,,,,,,,,,,,,,,,,187,2166.85,2026-09-25T17:01:11.224Z,53.5,0,1500,0,0,2026-09-25T17:01:11.224Z,53.1,1507,1511,1528,1493,255,2026-09-25T17:01:11.126Z,151.5,1.12,-0.39,0.0,0.0,0.01,2026-09-25T17:01:11.125Z,151.8,2026-09-25T17:01:10.331Z,946.1,2026-09-25T17:01:10.931Z,346.2,2026-09-25T17:01:10.931Z,346.5,2026-09-25T17:01:10.930Z,346.8,2026-09-25T17:01:10.332Z,945.5
2026-09-25T17:01:11.332Z,2026-09-25T17:01:13.398Z,2.85,57,False,RTL,0,0,-0.860583,0.554623,-172.545667,-0.018908,0.012605,-0.014897,39.0187654,-104.8934866,2166.85,0.383,0.0,0.0,-0.01,187.46,-0.011,-0.009,39.0187655,-104.8934866,2166.45,0.01,183.17,32,6,0.66,1.19,0.002,0.017,0.017,0,0.0,-0.02942,-9.787037,0.0,0.0,0.0,-216,-1,454,16.506,0.0,0,99,18.75,1000,1000,1000,1000,0.022,0.023,0.025,0,0,0,831,0.0203,0.0029,0.0315,0.0209,790.859,41.57,-180.0,0.0,0.0,2026-09-25T17:01:11.323Z,0.002,10.301,0,2026-04-01 14:44:02,17.25,690.9,690.1,0.0,6.0,81.0,3.0,2026-09-25T17:01:11.273Z,58.6,2026-09-25T17:01:11.327Z,4.5,2026-09-25T17:01:11.328Z,3.9,-1,-3,-1000,0,0,0,2026-09-25T17:01:11.324Z,7.4,2026-09-25T17:01:11.326Z,5.5,2026-09-25T17:01:11.323Z,8.6,1790355673400880,143403,2026-09-25T17:01:11.331Z,0.6,,,,0,,,1,2026-09-25T17:01:11.325Z,6.8,16.506,0.0,99,26.8,0.0,0,1198627887,2026-09-25T17:01:11.325Z,6.5,5.238,0.016,1,2026-09-25T17:01:11.330Z,1.2,,,,,,,,,,,,,,,,,,,187,2166.85,2026-09-25T17:01:11.323Z,8.3,0,1500,0,0,2026-09-25T17:01:11.324Z,7.8,1507,1511,1528,1493,255,2026-09-25T17:01:11.326Z,5.8,1.12,-0.39,0.0,0.0,0.01,2026-09-25T17:01:11.326Z,6.2,2026-09-25T17:01:11.331Z,0.9,2026-09-25T17:01:10.931Z,400.6,2026-09-25T17:01:10.931Z,400.9,2026-09-25T17:01:10.930Z,401.2,2026-09-25T17:01:11.331Z,0.3
2026-09-25T17:01:11.377Z,2026-09-25T17:01:13.443Z,2.9,58,False,RTL,0,0,-0.860583,0.554623,-172.543948,-0.026356,-0.016616,-0.014324,39.0187654,-104.8934866,2166.85,0.383,0.0,0.0,-0.01,187.46,-0.011,-0.009,39.0187655,-104.8934866,2166.45,0.01,183.17,32,6,0.66,1.19,0.002,0.017,0.017,0,0.0,-0.02942,-9.787037,0.0,0.0,0.0,-217,-1,454,16.506,0.0,0,99,18.75,1000,1000,1000,1000,0.022,0.023,0.025,0,0,0,831,0.0203,0.0029,0.0315,0.0209,790.859,41.57,-180.0,0.0,0.0,2026-09-25T17:01:11.373Z,0.002,5.607,0,2026-04-01 14:44:02,17.25,740.9,740.1,0.0,6.0,81.0,3.0,2026-09-25T17:01:11.273Z,103.9,2026-09-25T17:01:11.374Z,3.2,2026-09-25T17:01:11.374Z,2.6,-1,-3,-1000,0,0,0,2026-09-25T17:01:11.324Z,52.7,2026-09-25T17:01:11.326Z,50.8,2026-09-25T17:01:11.323Z,54.0,1790355673400880,143403,2026-09-25T17:01:11.331Z,46.0,,,,0,,,1,2026-09-25T17:01:11.325Z,52.2,16.506,0.0,99,26.8,0.0,0,1198627887,2026-09-25T17:01:11.325Z,51.9,5.238,0.016,1,2026-09-25T17:01:11.330Z,46.6,,,,,,,,,,,,,,,,,,,187,2166.85,2026-09-25T17:01:11.323Z,53.6,0,1500,0,0,2026-09-25T17:01:11.324Z,53.1,1507,1511,1528,1493,255,2026-09-25T17:01:11.326Z,51.2,1.12,-0.39,0.0,0.0,0.01,2026-09-25T17:01:11.326Z,51.5,2026-09-25T17:01:11.331Z,46.3,2026-09-25T17:01:10.931Z,446.0,2026-09-25T17:01:10.931Z,446.3,2026-09-25T17:01:10.930Z,446.6,2026-09-25T17:01:11.331Z,45.6
2026-09-25T17:01:11.430Z,2026-09-25T17:01:13.496Z,2.95,59,False,RTL,0,0,-0.860583,0.555196,-172.541656,0.014324,0.012605,0.010886,39.0187654,-104.8934866,2166.85,0.383,0.0,0.0,-0.01,187.46,-0.011,-0.009,39.0187655,-104.8934866,2166.45,0.01,183.17,32,6,0.66,1.19,0.003,0.017,0.017,0,0.009807,-0.019613,-9.787037,0.001,0.0,0.0,-217,-1,454,16.513,0.01,0,99,18.75,1000,1000,1000,1000,0.023,0.022,0.023,0,0,0,831,0.0068,0.0007,0.0133,0.0,790.853,41.6,-180.0,0.0,0.0,2026-09-25T17:01:11.423Z,0.002,8.57,0,2026-04-01 14:44:02,17.25,790.9,790.1,0.0,6.0,81.0,3.0,2026-09-25T17:01:11.273Z,156.9,2026-09-25T17:01:11.426Z,4.2,2026-09-25T17:01:11.426Z,3.6,-1,-2,-1000,0,0,0,2026-09-25T17:01:11.424Z,5.7,2026-09-25T17:01:11.326Z,103.8,2026-09-25T17:01:11.423Z,6.9,1790355673400880,143403,2026-09-25T17:01:11.331Z,98.9,,,,0,,,1,2026-09-25T17:01:11.425Z,5.2,16.506,0.0,99,26.8,0.0,0,1198627887,2026-09-25T17:01:11.325Z,104.8,5.238,0.016,1,2026-09-25T17:01:11.330Z,99.5,,,,,,,,,,,,,,,,,,,187,2166.85,2026-09-25T17:01:11.423Z,6.6,0,1500,0,0,2026-09-25T17:01:11.424Z,6.1,1507,1511,1528,1493,255,2026-09-25T17:01:11.326Z,104.1,1.12,-0.39,0.0,0.0,0.01,2026-09-25T17:01:11.326Z,104.5,2026-09-25T17:01:11.331Z,99.2,2026-09-25T17:01:11.430Z,0.3,2026-09-25T17:01:11.429Z,0.6,2026-09-25T17:01:11.429Z,0.9,2026-09-25T17:01:11.331Z,98.6
2026-09-25T17:01:11.477Z,2026-09-25T17:01:13.543Z,3.0,60,False,RTL,0,0,-0.861156,0.554623,-172.541656,-0.007448,0.002865,-0.00573,39.0187654,-104.8934866,2166.85,0.383,0.0,0.0,-0.01,187.46,-0.011,-0.009,39.0187655,-104.8934866,2166.45,0.01,183.17,32,6,0.66,1.19,0.003,0.017,0.017,0,0.0,-0.02942,-9.787037,0.0,0.0,0.0,-216,-1,454,16.513,0.01,0,99,18.75,1000,1000,1000,1000,0.023,0.022,0.023,0,0,0,831,0.0068,0.0007,0.0133,0.0,790.853,41.6,-180.0,0.0,0.0,2026-09-25T17:01:11.473Z,0.002,5.55,0,2026-04-01 14:44:02,17.25,840.9,840.1,0.0,6.0,81.0,3.0,2026-09-25T17:01:11.273Z,203.9,2026-09-25T17:01:11.474Z,3.2,2026-09-25T17:01:11.474Z,2.6,-1,-2,-1000,0,0,0,2026-09-25T17:01:11.424Z,52.7,2026-09-25T17:01:11.326Z,150.8,2026-09-25T17:01:11.423Z,53.9,1790355673400880,143403,2026-09-25T17:01:11.331Z,145.9,,,,0,,,1,2026-09-25T17:01:11.425Z,52.2,16.506,0.0,99,26.8,0.0,0,1198627887,2026-09-25T17:01:11.325Z,151.8,5.238,0.016,1,2026-09-25T17:01:11.330Z,146.5,,,,,,,,,,,,,,,,,,,187,2166.85,2026-09-25T17:01:11.423Z,53.6,0,1500,0,0,2026-09-25T17:01:11.424Z,53.1,1507,1511,1528,1493,255,2026-09-25T17:01:11.326Z,151.1,1.12,-0.39,0.0,0.0,0.01,2026-09-25T17:01:11.326Z,151.5,2026-09-25T17:01:11.331Z,146.2,2026-09-25T17:01:11.430Z,47.2,2026-09-25T17:01:11.429Z,47.6,2026-09-25T17:01:11.429Z,47.9,2026-09-25T17:01:11.331Z,145.6
2026-09-25T17:01:11.530Z,2026-09-25T17:01:13.596Z,3.05,61,False,RTL,0,0,-0.860583,0.55405,-172.54051,0.003438,-0.001146,-0.042399,39.0187654,-104.8934866,2166.85,0.384,0.0,0.0,-0.01,187.46,-0.011,-0.009,39.0187654,-104.8934866,2166.44,0.01,41.18,32,6,0.66,1.19,0.003,0.017,0.017,0,0.009807,-0.039227,-9.787037,0.0,0.0,0.0,-216,-1,454,16.508,0.01,0,99,18.75,1000,1000,1000,1000,0.023,0.022,0.023,0,0,0,831,0.0068,0.0007,0.0133,0.0,790.853,41.6,-180.0,0.0,0.0,2026-09-25T17:01:11.523Z,0.002,8.948,0,2026-04-01 14:44:02,17.25,890.9,890.1,0.0,6.0,81.0,3.0,2026-09-25T17:01:11.273Z,257.3,2026-09-25T17:01:11.527Z,3.3,2026-09-25T17:01:11.528Z,2.6,-2,-3,-1000,0,0,0,2026-09-25T17:01:11.524Z,6.1,2026-09-25T17:01:11.526Z,4.2,2026-09-25T17:01:11.523Z,7.3,1790355673400880,143403,2026-09-25T17:01:11.331Z,199.3,,,,0,,,1,2026-09-25T17:01:11.525Z,5.5,16.508,0.01,99,26.9,0.0,0,1198627887,2026-09-25T17:01:11.525Z,5.2,5.238,0.016,1,2026-09-25T17:01:11.330Z,199.9,,,,,,,,,,,,,,,,,,,187,2166.85,2026-09-25T17:01:11.523Z,7.0,0,1500,0,0,2026-09-25T17:01:11.524Z,6.5,1507,1511,1528,1493,255,2026-09-25T17:01:11.526Z,4.5,1.12,-0.39,0.0,0.0,0.01,2026-09-25T17:01:11.525Z,4.9,2026-09-25T17:01:11.331Z,199.6,2026-09-25T17:01:11.430Z,100.6,2026-09-25T17:01:11.429Z,100.9,2026-09-25T17:01:11.429Z,101.3,2026-09-25T17:01:11.331Z,199.0
2026-09-25T17:01:11.577Z,2026-09-25T17:01:13.643Z,3.1,62,False,RTL,0,0,-0.86001,0.553477,-172.539365,0.030367,-0.004584,-0.036096,39.0187654,-104.8934866,2166.85,0.384,0.0,0.0,-0.01,187.46,-0.011,-0.009,39.0187654,-104.8934866,2166.44,0.01,41.18,32,6,0.66,1.19,0.003,0.017,0.017,0,0.0,-0.019613,-9.796843,0.0,0.0,0.0,-217,0,454,16.508,0.01,0,99,18.75,1000,1000,1000,1000,0.023,0.022,0.023,0,0,0,831,0.0068,0.0007,0.0133,0.0,790.853,41.6,-180.0,0.0,0.0,2026-09-25T17:01:11.573Z,0.002,5.539,0,2026-04-01 14:44:02,17.25,940.9,940.1,0.0,6.0,81.0,3.0,2026-09-25T17:01:11.273Z,303.9,2026-09-25T17:01:11.574Z,3.2,2026-09-25T17:01:11.574Z,2.6,-2,-3,-1000,0,0,0,2026-09-25T17:01:11.524Z,52.7,2026-09-25T17:01:11.526Z,50.8,2026-09-25T17:01:11.523Z,53.9,1790355673400880,143403,2026-09-25T17:01:11.331Z,245.9,,,,0,,,1,2026-09-25T17:01:11.525Z,52.1,16.508,0.01,99,26.9,0.0,0,1198627887,2026-09-25T17:01:11.525Z,51.8,5.238,0.016,1,2026-09-25T17:01:11.330Z,246.5,,,,,,,,,,,,,,,,,,,187,2166.85,2026-09-25T17:01:11.523Z,53.6,0,1500,0,0,2026-09-25T17:01:11.524Z,53.1,1507,1511,1528,1493,255,2026-09-25T17:01:11.526Z,51.1,1.12,-0.39,0.0,0.0,0.01,2026-09-25T17:01:11.525Z,51.5,2026-09-25T17:01:11.331Z,246.2,2026-09-25T17:01:11.430Z,147.2,2026-09-25T17:01:11.429Z,147.6,2026-09-25T17:01:11.429Z,147.9,2026-09-25T17:01:11.331Z,245.6
2026-09-25T17:01:11.631Z,2026-09-25T17:01:13.697Z,3.15,63,False,RTL,0,0,-0.86001,0.552904,-172.537646,-0.028648,-0.014324,-0.00573,39.0187654,-104.8934866,2166.85,0.384,0.0,0.0,-0.01,187.47,-0.011,-0.009,39.0187654,-104.8934866,2166.44,0.01,41.18,32,6,0.66,1.19,0.003,0.017,0.017,0,0.009807,-0.02942,-9.787037,0.0,0.0,0.0,-217,0,454,16.523,0.01,0,99,18.75,1000,1000,1000,1000,0.023,0.022,0.023,0,0,0,831,0.0068,0.0007,0.0133,0.0,790.853,41.6,-180.0,0.0,0.0,2026-09-25T17:01:11.623Z,0.003,10.7,0,2026-04-01 14:44:02,17.25,990.9,990.2,0.0,6.0,81.0,3.0,2026-09-25T17:01:11.273Z,358.5,2026-09-25T17:01:11.627Z,4.5,2026-09-25T17:01:11.628Z,3.7,-1,-2,-1000,1,0,0,2026-09-25T17:01:11.625Z,6.5,2026-09-25T17:01:11.526Z,105.4,2026-09-25T17:01:11.623Z,8.3,1790355673400880,143403,2026-09-25T17:01:11.331Z,300.5,,,,0,,,1,2026-09-25T17:01:11.626Z,5.9,16.508,0.01,99,26.9,0.0,0,1198627887,2026-09-25T17:01:11.525Z,106.4,5.238,0.016,1,2026-09-25T17:01:11.330Z,301.1,,,,,,,,,,,,,,,,,,,187,2166.85,2026-09-25T17:01:11.624Z,7.9,0,1500,0,0,2026-09-25T17:01:11.624Z,7.2,1507,1511,1528,1493,255,2026-09-25T17:01:11.526Z,105.8,1.12,-0.39,0.0,0.0,0.01,2026-09-25T17:01:11.525Z,106.1,2026-09-25T17:01:11.331Z,300.8,2026-09-25T17:01:11.430Z,201.9,2026-09-25T17:01:11.429Z,202.2,2026-09-25T17:01:11.429Z,202.5,2026-09-25T17:01:11.331Z,300.2
2026-09-25T17:01:11.684Z,2026-09-25T17:01:13.750Z,3.2,64,False,RTL,0,0,-0.86001,0.553477,-172.5365,-0.025783,0.034377,-0.019481,39.0187654,-104.8934866,2166.85,0.384,0.0,0.0,-0.01,187.47,-0.011,-0.009,39.0187654,-104.8934866,2166.44,0.01,41.18,32,6,0.66,1.19,0.003,0.017,0.017,0,0.0,-0.02942,-9.77723,0.0,0.0,0.0,-216,0,454,16.523,0.01,0,99,18.75,1000,1000,1000,1000,0.023,0.022,0.023,0,0,0,831,0.0068,0.0007,0.0133,0.0,790.853,41.6,-180.0,0.0,0.0,2026-09-25T17:01:11.673Z,0.003,12.84,0,2026-04-01 14:44:03,17.25,-10.0,-11.0,0.0,6.0,81.0,3.0,2026-09-25T17:01:11.273Z,410.6,2026-09-25T17:01:11.674Z,9.4,2026-09-25T17:01:11.675Z,8.5,-1,-2,-1000,1,0,0,2026-09-25T17:01:11.625Z,58.7,2026-09-25T17:01:11.526Z,157.6,2026-09-25T17:01:11.623Z,60.5,1790355673400880,143403,2026-09-25T17:01:11.331Z,352.7,,,,0,,,1,2026-09-25T17:01:11.626Z,58.0,16.508,0.01,99,26.9,0.0,0,1198627887,2026-09-25T17:01:11.525Z,158.6,5.238,0.016,1,2026-09-25T17:01:11.330Z,353.3,,,,,,,,,,,,,,,,,,,187,2166.85,2026-09-25T17:01:11.624Z,60.0,0,1500,0,0,2026-09-25T17:01:11.624Z,59.3,1507,1511,1528,1493,255,2026-09-25T17:01:11.526Z,157.9,1.12,-0.39,0.0,0.0,0.01,2026-09-25T17:01:11.525Z,158.3,2026-09-25T17:01:11.331Z,353.0,2026-09-25T17:01:11.430Z,254.0,2026-09-25T17:01:11.429Z,254.3,2026-09-25T17:01:11.429Z,254.7,2026-09-25T17:01:11.331Z,352.4
2026-09-25T17:01:11.733Z,2026-09-25T17:01:13.799Z,3.25,65,False,RTL,0,0,-0.86001,0.553477,-172.534781,-0.02521,0.00573,-0.04068,39.0187654,-104.8934866,2166.85,0.381,0.0,0.0,-0.01,187.47,-0.011,-0.009,39.0187655,-104.8934866,2166.44,0.01,132.27,32,6,0.66,1.19,0.004,0.016,0.016,0,0.009807,-0.02942,-9.77723,0.0,0.0,0.0,-216,0,454,16.506,0.01,0,99,18.75,1000,1000,1000,1000,0.023,0.022,0.023,0,0,0,831,0.0068,0.0007,0.0133,0.0,790.853,41.6,-180.0,0.0,0.0,2026-09-25T17:01:11.723Z,0.003,12.617,0,2026-04-01 14:44:03,17.25,40.0,39.0,0.0,6.0,81.0,3.0,2026-09-25T17:01:11.273Z,460.5,2026-09-25T17:01:11.729Z,4.6,2026-09-25T17:01:11.730Z,3.7,-1,-2,-1000,0,0,0,2026-09-25T17:01:11.725Z,8.5,2026-09-25T17:01:11.728Z,6.0,2026-09-25T17:01:11.723Z,10.3,1790355673400880,143403,2026-09-25T17:01:11.331Z,402.5,,,,0,,,1,2026-09-25T17:01:11.726Z,7.8,16.506,0.01,99,26.4,0.0,0,1198627887,2026-09-25T17:01:11.726Z,7.4,5.238,0.016,1,2026-09-25T17:01:11.330Z,403.2,,,,,,,,,,,,,,,,,,,187,2166.85,2026-09-25T17:01:11.724Z,9.8,0,1500,0,0,2026-09-25T17:01:11.724Z,9.2,1507,1511,1528,1493,255,2026-09-25T17:01:11.727Z,6.4,1.12,-0.39,0.0,0.0,0.0,2026-09-25T17:01:11.727Z,6.9,2026-09-25T17:01:11.331Z,402.9,2026-09-25T17:01:11.430Z,303.9,2026-09-25T17:01:11.429Z,304.2,2026-09-25T17:01:11.429Z,304.5,2026-09-25T17:01:11.331Z,402.2
2026-09-25T17:01:11.779Z,2026-09-25T17:01:13.845Z,3.3,66,False,RTL,0,0,-0.859437,0.552331,-172.532489,0.009167,-0.016043,0.0,39.0187654,-104.8934866,2166.85,0.381,0.0,0.0,-0.01,187.47,-0.011,-0.009,39.0187655,-104.8934866,2166.44,0.01,132.27,32,6,0.66,1.19,0.004,0.016,0.016,0,0.009807,-0.019613,-9.787037,0.0,0.0,0.0,-217,-1,454,16.506,0.01,0,99,18.75,1000,1000,1000,1000,0.023,0.022,0.023,0,0,0,831,0.0068,0.0007,0.0133,0.0,790.853,41.6,-180.0,0.0,0.0,2026-09-25T17:01:11.773Z,0.002,7.666,0,2026-04-01 14:44:03,17.25,90.0,89.0,0.0,6.0,81.0,3.0,2026-09-25T17:01:11.273Z,505.6,2026-09-25T17:01:11.774Z,4.5,2026-09-25T17:01:11.775Z,3.6,-1,-2,-1000,0,0,0,2026-09-25T17:01:11.725Z,53.6,2026-09-25T17:01:11.728Z,51.0,2026-09-25T17:01:11.723Z,55.4,1790355673400880,143403,2026-09-25T17:01:11.331Z,447.6,,,,0,,,1,2026-09-25T17:01:11.726Z,52.9,16.506,0.01,99,26.4,0.0,0,1198627887,2026-09-25T17:01:11.726Z,52.4,5.238,0.016,1,2026-09-25T17:01:11.330Z,448.2,,,,,,,,,,,,,,,,,,,187,2166.85,2026-09-25T17:01:11.724Z,54.9,0,1500,0,0,2026-09-25T17:01:11.724Z,54.2,1507,1511,1528,1493,255,2026-09-25T17:01:11.727Z,51.5,1.12,-0.39,0.0,0.0,0.0,2026-09-25T17:01:11.727Z,52.0,2026-09-25T17:01:11.331Z,447.9,2026-09-25T17:01:11.430Z,348.9,2026-09-25T17:01:11.429Z,349.3,2026-09-25T17:01:11.429Z,349.6,2026-09-25T17:01:11.331Z,447.3
2026-09-25T17:01:11.832Z,2026-09-25T17:01:13.898Z,3.35,67,False,RTL,0,0,-0.859437,0.553477,-172.53077,0.001146,0.024637,0.01547,39.0187654,-104.8934866,2166.84,0.379,0.0,0.0,-0.01,187.47,-0.011,-0.009,39.0187655,-104.8934866,2166.44,0.01,132.27,32,6,0.66,1.19,0.004,0.016,0.015,0,0.0,-0.019613,-9.787037,0.001,0.0,0.0,-217,-1,454,16.508,0.01,0,99,18.75,1000,1000,1000,1000,0.023,0.022,0.023,0,0,0,831,0.0068,0.0007,0.0133,0.0,790.853,41.6,-180.0,0.0,0.0,2026-09-25T17:01:11.823Z,0.003,10.81,0,2026-04-01 14:44:03,17.25,140.0,139.0,0.0,6.0,81.0,3.0,2026-09-25T17:01:11.273Z,558.6,2026-09-25T17:01:11.827Z,4.6,2026-09-25T17:01:11.828Z,3.7,0,-4,-1000,0,0,0,2026-09-25T17:01:11.825Z,6.6,2026-09-25T17:01:11.728Z,104.1,2026-09-25T17:01:11.823Z,8.4,1790355673400880,143403,2026-09-25T17:01:11.331Z,500.7,,,,0,,,1,2026-09-25T17:01:11.826Z,5.9,16.506,0.01,99,26.4,0.0,0,1198627887,2026-09-25T17:01:11.726Z,105.5,5.238,0.016,1,2026-09-25T17:01:11.330Z,501.3,,,,,,,,,,,,,,,,,,,187,2166.84,2026-09-25T17:01:11.824Z,8.0,0,1500,0,0,2026-09-25T17:01:11.824Z,7.3,1507,1511,1528,1493,255,2026-09-25T17:01:11.727Z,104.6,1.12,-0.39,0.0,0.0,0.0,2026-09-25T17:01:11.727Z,105.1,2026-09-25T17:01:11.331Z,501.0,2026-09-25T17:01:11.430Z,402.0,2026-09-25T17:01:11.429Z,402.3,2026-09-25T17:01:11.429Z,402.6,2026-09-25T17:01:11.331Z,500.3
2026-09-25T17:01:11.879Z,2026-09-25T17:01:13.945Z,3.4,68,False,RTL,0,0,-0.859437,0.55405,-172.531343,-0.012032,0.017189,-0.012605,39.0187654,-104.8934866,2166.84,0.379,0.0,0.0,-0.01,187.47,-0.011,-0.009,39.0187655,-104.8934866,2166.44,0.01,132.27,32,6,0.66,1.19,0.004,0.016,0.015,0,0.0,-0.019613,-9.787037,0.0,0.0,0.0,-216,-1,454,16.508,0.01,0,99,18.75,1000,1000,1000,1000,0.023,0.022,0.023,0,0,0,831,0.0068,0.0007,0.0133,0.0,790.853,41.6,-180.0,0.0,0.0,2026-09-25T17:01:11.873Z,0.002,7.711,0,2026-04-01 14:44:03,17.25,190.0,189.0,0.0,6.0,81.0,3.0,2026-09-25T17:01:11.273Z,605.6,2026-09-25T17:01:11.874Z,4.5,2026-09-25T17:01:11.875Z,3.7,0,-4,-1000,0,0,0,2026-09-25T17:01:11.825Z,53.6,2026-09-25T17:01:11.728Z,151.1,2026-09-25T17:01:11.823Z,55.4,1790355673400880,143403,2026-09-25T17:01:11.331Z,547.6,,,,0,,,1,2026-09-25T17:01:11.826Z,52.9,16.506,0.01,99,26.4,0.0,0,1198627887,2026-09-25T17:01:11.726Z,152.5,5.238,0.016,1,2026-09-25T17:01:11.330Z,548.3,,,,,,,,,,,,,,,,,,,187,2166.84,2026-09-25T17:01:11.824Z,54.9,0,1500,0,0,2026-09-25T17:01:11.824Z,54.3,1507,1511,1528,1493,255,2026-09-25T17:01:11.727Z,151.5,1.12,-0.39,0.0,0.0,0.0,2026-09-25T17:01:11.727Z,152.0,2026-09-25T17:01:11.331Z,548.0,2026-09-25T17:01:11.430Z,449.0,2026-09-25T17:01:11.429Z,449.3,2026-09-25T17:01:11.429Z,449.6,2026-09-25T17:01:11.331Z,547.3
2026-09-25T17:01:11.935Z,2026-09-25T17:01:14.001Z,3.45,69,False,RTL,0,0,-0.858864,0.553477,-172.533062,0.001146,-0.030367,0.001719,39.0187654,-104.8934866,2166.84,0.377,0.0,0.0,-0.01,187.47,-0.011,-0.009,39.0187654,-104.8934866,2166.44,0.01,289.98,32,6,0.66,1.19,0.004,0.015,0.015,0,0.0,-0.039227,-9.787037,0.0,0.0,0.0,-216,-1,454,16.51,0.01,0,99,18.75,1000,1000,1000,1000,0.023,0.023,0.022,0,0,0,831,0.0113,0.0015,0.0181,0.0044,790.872,41.64,-180.0,0.0,0.0,2026-09-25T17:01:11.923Z,0.003,13.955,0,2026-04-01 14:44:03,17.25,240.0,239.0,0.0,6.0,81.0,3.0,2026-09-25T17:01:11.273Z,661.9,2026-09-25T17:01:11.929Z,5.9,2026-09-25T17:01:11.930Z,5.0,-1,-2,-1000,0,0,0,2026-09-25T17:01:11.925Z,9.9,2026-09-25T17:01:11.928Z,7.3,2026-09-25T17:01:11.923Z,11.7,1790355673400880,143403,2026-09-25T17:01:11.331Z,603.9,,,,0,,,1,2026-09-25T17:01:11.926Z,9.2,16.51,0.01,99,26.4,0.0,0,1198627887,2026-09-25T17:01:11.926Z,8.8,5.238,0.016,1,2026-09-25T17:01:11.330Z,604.5,,,,,,,,,,,,,,,,,,,187,2166.84,2026-09-25T17:01:11.924Z,11.2,0,1500,0,0,2026-09-25T17:01:11.924Z,10.5,1507,1511,1528,1493,255,2026-09-25T17:01:11.927Z,7.8,1.12,-0.39,0.0,0.0,0.0,2026-09-25T17:01:11.927Z,8.3,2026-09-25T17:01:11.331Z,604.2,2026-09-25T17:01:11.935Z,0.4,2026-09-25T17:01:11.934Z,0.8,2026-09-25T17:01:11.934Z,1.3,2026-09-25T17:01:11.331Z,603.6
2026-09-25T17:01:11.979Z,2026-09-25T17:01:14.045Z,3.5,70,False,RTL,0,0,-0.859437,0.552331,-172.532489,-0.010313,0.002292,0.031513,39.0187654,-104.8934866,2166.84,0.377,0.0,0.0,-0.01,187.47,-0.011,-0.009,39.0187654,-104.8934866,2166.44,0.01,289.98,32,6,0.66,1.19,0.004,0.015,0.015,0,0.0,-0.039227,-9.77723,0.001,0.0,0.0,-217,0,454,16.51,0.01,0,99,18.75,1000,1000,1000,1000,0.023,0.023,0.022,0,0,0,831,0.0113,0.0015,0.0181,0.0044,790.872,41.64,-180.0,0.0,0.0,2026-09-25T17:01:11.973Z,0.002,7.694,0,2026-04-01 14:44:03,17.25,290.0,289.0,0.0,6.0,81.0,3.0,2026-09-25T17:01:11.273Z,705.6,2026-09-25T17:01:11.974Z,4.5,2026-09-25T17:01:11.975Z,3.7,-1,-2,-1000,0,0,0,2026-09-25T17:01:11.925Z,53.6,2026-09-25T17:01:11.928Z,51.1,2026-09-25T17:01:11.923Z,55.4,1790355673400880,143403,2026-09-25T17:01:11.331Z,647.6,,,,0,,,1,2026-09-25T17:01:11.926Z,53.0,16.51,0.01,99,26.4,0.0,0,1198627887,2026-09-25T17:01:11.926Z,52.5,5.238,0.016,1,2026-09-25T17:01:11.330Z,648.3,,,,,,,,,,,,,,,,,,,187,2166.84,2026-09-25T17:01:11.924Z,54.9,0,1500,0,0,2026-09-25T17:01:11.924Z,54.3,1507,1511,1528,1493,255,2026-09-25T17:01:11.927Z,51.6,1.12,-0.39,0.0,0.0,0.0,2026-09-25T17:01:11.927Z,52.0,2026-09-25T17:01:11.331Z,647.9,2026-09-25T17:01:11.935Z,44.1,2026-09-25T17:01:11.934Z,44.5,2026-09-25T17:01:11.934Z,45.0,2026-09-25T17:01:11.331Z,647.3
2026-09-25T17:01:12.031Z,2026-09-25T17:01:14.097Z,3.55,71,False,RTL,0,0,-0.858864,0.552904,-172.534208,0.019481,0.004584,-0.002292,39.0187654,-104.8934866,2166.84,0.374,0.0,0.0,-0.01,187.47,-0.011,-0.009,39.0187654,-104.8934866,2166.44,0.01,289.98,32,6,0.66,1.19,0.004,0.015,0.014,0,0.0,-0.02942,-9.787037,0.001,0.0,0.0,-217,0,454,16.516,0.01,0,99,18.75,1000,1000,1000,1000,0.023,0.023,0.022,0,0,0,831,0.0113,0.0015,0.0181,0.0044,790.872,41.64,-180.0,0.0,0.0,2026-09-25T17:01:12.023Z,0.003,10.713,0,2026-04-01 14:44:03,17.25,340.0,339.0,0.0,6.0,81.0,3.0,2026-09-25T17:01:11.273Z,758.5,2026-09-25T17:01:12.027Z,4.5,2026-09-25T17:01:12.028Z,3.7,-1,-3,-1000,0,0,0,2026-09-25T17:01:12.025Z,6.5,2026-09-25T17:01:11.928Z,104.0,2026-09-25T17:01:12.023Z,8.3,1790355673400880,143403,2026-09-25T17:01:11.331Z,700.6,,,,0,,,1,2026-09-25T17:01:12.026Z,5.9,16.51,0.01,99,26.4,0.0,0,1198627887,2026-09-25T17:01:11.926Z,105.4,5.238,0.016,1,2026-09-25T17:01:11.330Z,701.2,,,,,,,,,,,,,,,,,,,187,2166.84,2026-09-25T17:01:12.024Z,7.9,0,1500,0,0,2026-09-25T17:01:12.024Z,7.2,1507,1511,1528,1493,255,2026-09-25T17:01:11.927Z,104.5,1.12,-0.39,0.0,0.0,0.0,2026-09-25T17:01:11.927Z,105.0,2026-09-25T17:01:11.331Z,700.9,2026-09-25T17:01:11.935Z,97.0,2026-09-25T17:01:11.934Z,97.5,2026-09-25T17:01:11.934Z,97.9,2026-09-25T17:01:11.331Z,700.2
2026-09-25T17:01:12.079Z,2026-09-25T17:01:14.145Z,3.6,72,False,RTL,0,0,-0.858291,0.553477,-172.535927,0.008021,0.014897,-0.020626,39.0187654,-104.8934866,2166.84,0.374,0.0,0.0,-0.01,187.47,-0.011,-0.009,39.0187654,-104.8934866,2166.44,0.01,289.98,32,6,0.66,1.19,0.004,0.015,0.014,0,0.009807,-0.02942,-9.787037,0.0,0.0,0.0,-216,-1,454,16.516,0.01,0,99,18.75,1000,1000,1000,1000,0.023,0.023,0.022,0,0,0,831,0.0113,0.0015,0.0181,0.0044,790.872,41.64,-180.0,0.0,0.0,2026-09-25T17:01:12.073Z,0.003,7.683,0,2026-04-01 14:44:03,17.25,390.0,389.0,0.0,6.0,81.0,3.0,2026-09-25T17:01:11.273Z,805.6,2026-09-25T17:01:12.074Z,4.5,2026-09-25T17:01:12.075Z,3.6,-1,-3,-1000,0,0,0,2026-09-25T17:01:12.025Z,53.6,2026-09-25T17:01:11.928Z,151.1,2026-09-25T17:01:12.023Z,55.4,1790355673400880,143403,2026-09-25T17:01:11.331Z,747.6,,,,0,,,1,2026-09-25T17:01:12.026Z,52.9,16.51,0.01,99,26.4,0.0,0,1198627887,2026-09-25T17:01:11.926Z,152.5,5.238,0.016,1,2026-09-25T17:01:11.330Z,748.2,,,,,,,,,,,,,,,,,,,187,2166.84,2026-09-25T17:01:12.024Z,54.9,0,1500,0,0,2026-09-25T17:01:12.024Z,54.2,1507,1511,1528,1493,255,2026-09-25T17:01:11.927Z,151.5,1.12,-0.39,0.0,0.0,0.0,2026-09-25T17:01:11.927Z,152.0,2026-09-25T17:01:11.331Z,747.9,2026-09-25T17:01:11.935Z,144.1,2026-09-25T17:01:11.934Z,144.5,2026-09-25T17:01:11.934Z,145.0,2026-09-25T17:01:11.331Z,747.3
2026-09-25T17:01:12.133Z,2026-09-25T17:01:14.199Z,3.65,73,False,RTL,0,0,-0.858291,0.552904,-172.535927,-0.025783,-0.016043,-0.022345,39.0187654,-104.8934866,2166.84,0.371,0.0,0.0,-0.01,187.47,-0.011,-0.009,39.0187655,-104.8934866,2166.44,0.01,180.0,32,6,0.66,1.19,0.004,0.015,0.014,0,0.009807,-0.039227,-9.77723,0.0,0.0,-0.001,-216,-1,454,16.516,0.01,0,99,18.75,1000,1000,1000,1000,0.023,0.023,0.022,0,0,0,831,0.0113,0.0015,0.0181,0.0044,790.872,41.64,-180.0,0.0,0.0,2026-09-25T17:01:12.123Z,0.002,12.498,0,2026-04-01 14:44:03,17.25,440.0,439.0,0.0,6.0,81.0,3.0,2026-09-25T17:01:11.273Z,860.4,2026-09-25T17:01:12.129Z,4.6,2026-09-25T17:01:12.130Z,3.7,-1,-3,-1001,0,0,0,2026-09-25T17:01:12.125Z,8.5,2026-09-25T17:01:12.128Z,5.9,2026-09-25T17:01:12.123Z,10.3,1790355673400880,143403,2026-09-25T17:01:11.331Z,802.4,,,,0,,,1,2026-09-25T17:01:12.126Z,7.8,16.516,0.01,99,27.0,0.0,0,1198627887,2026-09-25T17:01:12.126Z,7.4,5.238,0.016,1,2026-09-25T17:01:11.330Z,803.1,,,,,,,,,,,,,,,,,,,187,2166.84,2026-09-25T17:01:12.124Z,9.8,0,1500,0,0,2026-09-25T17:01:12.124Z,9.1,1507,1511,1528,1493,255,2026-09-25T17:01:12.127Z,6.4,1.12,-0.39,0.0,0.0,0.0,2026-09-25T17:01:12.127Z,6.9,2026-09-25T17:01:11.331Z,802.7,2026-09-25T17:01:11.935Z,198.9,2026-09-25T17:01:11.934Z,199.3,2026-09-25T17:01:11.934Z,199.8,2026-09-25T17:01:11.331Z,802.1
2026-09-25T17:01:12.179Z,2026-09-25T17:01:14.245Z,3.7,74,False,RTL,0,0,-0.857145,0.553477,-172.534781,0.010886,0.037242,-0.033232,39.0187654,-104.8934866,2166.84,0.371,0.0,0.0,-0.01,187.47,-0.011,-0.009,39.0187655,-104.8934866,2166.44,0.01,180.0,32,6,0.66,1.19,0.004,0.015,0.014,0,0.0,-0.039227,-9.787037,0.0,0.0,0.0,-217,-1,454,16.516,0.01,0,99,18.75,1000,1000,1000,1000,0.023,0.023,0.022,0,0,0,831,0.0113,0.0015,0.0181,0.0044,790.872,41.64,-180.0,0.0,0.0,2026-09-25T17:01:12.173Z,0.002,7.721,0,2026-04-01 14:44:03,17.25,490.0,489.0,0.0,6.0,81.0,3.0,2026-09-25T17:01:11.273Z,905.6,2026-09-25T17:01:12.174Z,4.5,2026-09-25T17:01:12.175Z,3.7,-1,-3,-1001,0,0,0,2026-09-25T17:01:12.125Z,53.7,2026-09-25T17:01:12.128Z,51.2,2026-09-25T17:01:12.123Z,55.5,1790355673400880,143403,2026-09-25T17:01:11.331Z,847.7,,,,0,,,1,2026-09-25T17:01:12.126Z,53.0,16.516,0.01,99,27.0,0.0,0,1198627887,2026-09-25T17:01:12.126Z,52.6,5.238,0.016,1,2026-09-25T17:01:11.330Z,848.3,,,,,,,,,,,,,,,,,,,187,2166.84,2026-09-25T17:01:12.124Z,55.0,0,1500,0,0,2026-09-25T17:01:12.124Z,54.3,1507,1511,1528,1493,255,2026-09-25T17:01:12.127Z,51.7,1.12,-0.39,0.0,0.0,0.0,2026-09-25T17:01:12.127Z,52.1,2026-09-25T17:01:11.331Z,848.0,2026-09-25T17:01:11.935Z,244.1,2026-09-25T17:01:11.934Z,244.6,2026-09-25T17:01:11.934Z,245.0,2026-09-25T17:01:11.331Z,847.3
2026-09-25T17:01:12.233Z,2026-09-25T17:01:14.299Z,3.75,75,False,RTL,0,0,-0.857145,0.55405,-172.534208,0.001146,0.013751,0.01547,39.0187654,-104.8934866,2166.83,0.369,0.0,0.0,-0.01,187.47,-0.011,-0.009,39.0187655,-104.8934866,2166.44,0.01,180.0,32,6,0.66,1.19,0.004,0.014,0.014,0,0.0,-0.019613,-9.787037,0.0,0.0,0.0,-217,-1,454,16.51,0.01,0,99,18.75,1000,1000,1000,1000,0.023,0.023,0.022,0,0,0,831,0.0113,0.0015,0.0181,0.0044,790.872,41.64,-180.0,0.0,0.0,2026-09-25T17:01:12.223Z,0.003,12.523,0,2026-04-01 14:44:03,17.25,540.0,539.0,0.0,0.0,4.0,4.0,2026-09-25T17:01:12.224Z,9.3,2026-09-25T17:01:12.228Z,5.1,2026-09-25T17:01:12.229Z,4.2,-1,-3,-1001,0,0,0,2026-09-25T17:01:12.226Z,7.1,2026-09-25T17:01:12.128Z,106.0,2026-09-25T17:01:12.225Z,8.9,1790355673400880,143403,2026-09-25T17:01:11.331Z,902.5,,,,0,,,1,2026-09-25T17:01:12.227Z,6.5,16.516,0.01,99,27.0,0.0,0,1198627887,2026-09-25T17:01:12.126Z,107.4,5.238,0.016,1,2026-09-25T17:01:11.330Z,903.1,,,,,,,,,,,,,,,,,,,187,2166.83,2026-09-25T17:01:12.225Z,8.4,0,1500,0,0,2026-09-25T17:01:12.226Z,7.7,1507,1511,1528,1493,255,2026-09-25T17:01:12.127Z,106.4,1.12,-0.39,0.0,0.0,0.0,2026-09-25T17:01:12.127Z,106.9,2026-09-25T17:01:11.331Z,902.8,2026-09-25T17:01:11.935Z,298.9,2026-09-25T17:01:11.934Z,299.4,2026-09-25T17:01:11.934Z,299.8,2026-09-25T17:01:11.331Z,902.1
2026-09-25T17:01:12.280Z,2026-09-25T17:01:14.346Z,3.8,76,False,RTL,0,0,-0.856572,0.55405,-172.534208,0.013178,0.002292,-0.029221,39.0187654,-104.8934866,2166.83,0.369,0.0,0.0,-0.01,187.47,-0.011,-0.009,39.0187655,-104.8934866,2166.44,0.01,180.0,32,6,0.66,1.19,0.004,0.014,0.014,0,0.0,-0.02942,-9.787037,0.001,0.0,0.0,-216,0,454,16.51,0.01,0,99,18.75,1000,1000,1000,1000,0.023,0.023,0.022,0,0,0,831,0.0113,0.0015,0.0181,0.0044,790.872,41.64,-180.0,0.0,0.0,2026-09-25T17:01:12.273Z,0.003,8.777,0,2026-04-01 14:44:03,17.25,590.0,589.0,0.0,6.0,81.0,3.0,2026-09-25T17:01:12.274Z,5.9,2026-09-25T17:01:12.275Z,4.6,2026-09-25T17:01:12.276Z,3.7,-1,-3,-1001,0,0,0,2026-09-25T17:01:12.226Z,53.3,2026-09-25T17:01:12.128Z,152.1,2026-09-25T17:01:12.225Z,55.0,1790355673400880,143403,2026-09-25T17:01:11.331Z,948.6,,,,0,,,1,2026-09-25T17:01:12.227Z,52.7,16.516,0.01,99,27.0,0.0,0,1198627887,2026-09-25T17:01:12.126Z,153.6,5.238,0.016,1,2026-09-25T17:01:11.330Z,949.3,,,,,,,,,,,,,,,,,,,187,2166.83,2026-09-25T17:01:12.225Z,54.6,0,1500,0,0,2026-09-25T17:01:12.226Z,53.9,1507,1511,1528,1493,255,2026-09-25T17:01:12.127Z,152.6,1.12,-0.39,0.0,0.0,0.0,2026-09-25T17:01:12.127Z,153.1,2026-09-25T17:01:11.331Z,949.0,2026-09-25T17:01:11.935Z,345.1,2026-09-25T17:01:11.934Z,345.6,2026-09-25T17:01:11.934Z,346.0,2026-09-25T17:01:11.331Z,948.3
2026-09-25T17:01:12.335Z,2026-09-25T17:01:14.401Z,3.85,77,False,RTL,0,0,-0.857145,0.55405,-172.534208,-0.001719,0.010886,-0.021199,39.0187654,-104.8934866,2166.83,0.367,0.0,0.0,-0.01,187.47,-0.011,-0.009,39.0187655,-104.8934866,2166.44,0.01,84.8,32,6,0.66,1.19,0.004,0.014,0.013,0,0.009807,-0.02942,-9.77723,0.0,0.0,0.0,-216,0,454,16.512,0.01,0,99,18.75,1000,1000,1000,1000,0.023,0.023,0.022,0,0,0,831,0.0113,0.0015,0.0181,0.0044,790.872,41.64,-180.0,0.0,0.0,2026-09-25T17:01:12.323Z,0.003,14.446,0,2026-04-01 14:44:03,17.25,640.0,639.0,0.0,6.0,81.0,3.0,2026-09-25T17:01:12.274Z,61.5,2026-09-25T17:01:12.329Z,6.4,2026-09-25T17:01:12.330Z,5.5,-1,-3,-1000,0,0,0,2026-09-25T17:01:12.325Z,10.3,2026-09-25T17:01:12.328Z,7.8,2026-09-25T17:01:12.323Z,12.1,1790355674400939,144403,2026-09-25T17:01:12.335Z,0.8,,,,0,,,1,2026-09-25T17:01:12.326Z,9.7,16.512,0.01,99,27.2,0.0,0,1198627887,2026-09-25T17:01:12.326Z,9.2,5.226,0.014,1,2026-09-25T17:01:12.334Z,1.7,,,,,,,,,,,,,,,,,,,187,2166.83,2026-09-25T17:01:12.324Z,11.6,0,1500,0,0,2026-09-25T17:01:12.324Z,11.0,1507,1511,1528,1493,255,2026-09-25T17:01:12.327Z,8.3,1.12,-0.39,0.0,0.0,0.0,2026-09-25T17:01:12.327Z,8.8,2026-09-25T17:01:12.334Z,1.3,2026-09-25T17:01:11.935Z,400.8,2026-09-25T17:01:11.934Z,401.2,2026-09-25T17:01:11.934Z,401.7,2026-09-25T17:01:12.335Z,0.4
2026-09-25T17:01:12.379Z,2026-09-25T17:01:14.445Z,3.9,78,False,RTL,0,0,-0.857145,0.55405,-172.535354,-0.032086,0.002865,0.007448,39.0187654,-104.8934866,2166.83,0.367,0.0,0.0,-0.01,187.47,-0.011,-0.009,39.0187655,-104.8934866,2166.44,0.01,84.8,32,6,0.66,1.19,0.004,0.014,0.013,0,0.0,-0.039227,-9.787037,0.0,0.0,0.0,-217,-1,454,16.512,0.01,0,99,18.75,1000,1000,1000,1000,0.023,0.023,0.022,0,0,0,831,0.0113,0.0015,0.0181,0.0044,790.872,41.64,-180.0,0.0,0.0,2026-09-25T17:01:12.373Z,0.003,7.762,0,2026-04-01 14:44:03,17.25,690.0,689.0,0.0,6.0,81.0,3.0,2026-09-25T17:01:12.274Z,104.9,2026-09-25T17:01:12.374Z,4.5,2026-09-25T17:01:12.375Z,3.7,-1,-3,-1000,0,0,0,2026-09-25T17:01:12.325Z,53.7,2026-09-25T17:01:12.328Z,51.2,2026-09-25T17:01:12.323Z,55.5,1790355674400939,144403,2026-09-25T17:01:12.335Z,44.2,,,,0,,,1,2026-09-25T17:01:12.326Z,53.1,16.512,0.01,99,27.2,0.0,0,1198627887,2026-09-25T17:01:12.326Z,52.6,5.226,0.014,1,2026-09-25T17:01:12.334Z,45.1,,,,,,,,,,,,,,,,,,,187,2166.83,2026-09-25T17:01:12.324Z,55.0,0,1500,0,0,2026-09-25T17:01:12.324Z,54.4,1507,1511,1528,1493,255,2026-09-25T17:01:12.327Z,51.7,1.12,-0.39,0.0,0.0,0.0,2026-09-25T17:01:12.327Z,52.1,2026-09-25T17:01:12.334Z,44.6,2026-09-25T17:01:11.935Z,444.2,2026-09-25T17:01:11.934Z,444.6,2026-09-25T17:01:11.934Z,445.1,2026-09-25T17:01:12.335Z,43.8
2026-09-25T17:01:12.434Z,2026-09-25T17:01:14.500Z,3.95,79,False,RTL,0,0,-0.855999,0.554623,-172.537646,0.016616,0.014897,-0.017189,39.0187654,-104.8934866,2166.83,0.363,0.0,0.0,-0.01,187.47,-0.011,-0.009,39.0187655,-104.8934866,2166.44,0.01,84.8,32,6,0.66,1.19,0.004,0.013,0.012,0,0.009807,-0.039227,-9.787037,0.001,0.0,0.0,-217,-1,454,16.512,0.01,0,99,18.75,1000,1000,1000,1000,0.022,0.021,0.023,0,0,0,831,0.0113,0.0019,0.0188,0.0109,790.862,41.67,-180.0,0.0,0.0,2026-09-25T17:01:12.423Z,0.002,12.833,0,2026-04-01 14:44:03,17.25,740.0,739.0,0.0,6.0,81.0,3.0,2026-09-25T17:01:12.274Z,160.0,2026-09-25T17:01:12.427Z,6.5,2026-09-25T17:01:12.428Z,5.7,0,-3,-1001,1,0,0,2026-09-25T17:01:12.425Z,8.7,2026-09-25T17:01:12.328Z,106.2,2026-09-25T17:01:12.423Z,10.6,1790355674400939,144403,2026-09-25T17:01:12.335Z,99.3,,,,0,,,1,2026-09-25T17:01:12.426Z,7.9,16.512,0.01,99,27.2,0.0,0,1198627887,2026-09-25T17:01:12.326Z,107.7,5.226,0.014,1,2026-09-25T17:01:12.334Z,100.2,,,,,,,,,,,,,,,,,,,187,2166.83,2026-09-25T17:01:12.424Z,10.1,0,1500,0,0,2026-09-25T17:01:12.424Z,9.4,1507,1511,1528,1493,255,2026-09-25T17:01:12.327Z,106.7,1.12,-0.39,0.0,0.0,0.0,2026-09-25T17:01:12.327Z,107.2,2026-09-25T17:01:12.334Z,99.7,2026-09-25T17:01:12.433Z,0.9,2026-09-25T17:01:12.432Z,1.4,2026-09-25T17:01:12.432Z,1.9,2026-09-25T17:01:12.335Z,98.8
2026-09-25T17:01:12.479Z,2026-09-25T17:01:14.545Z,4.0,80,False,RTL,0,0,-0.855999,0.554623,-172.54051,-0.008021,-0.019481,0.009167,39.0187654,-104.8934866,2166.83,0.363,0.0,0.0,-0.01,187.47,-0.011,-0.009,39.0187655,-104.8934866,2166.44,0.01,84.8,32,6,0.66,1.19,0.004,0.013,0.012,0,0.0,-0.039227,-9.787037,0.0,0.0,0.0,-216,0,454,16.512,0.01,0,99,18.75,1000,1000,1000,1000,0.022,0.021,0.023,0,0,0,831,0.0113,0.0019,0.0188,0.0109,790.862,41.67,-180.0,0.0,0.0,2026-09-25T17:01:12.473Z,0.003,7.722,0,2026-04-01 14:44:03,17.25,790.0,789.0,0.0,6.0,81.0,3.0,2026-09-25T17:01:12.274Z,204.9,2026-09-25T17:01:12.474Z,4.6,2026-09-25T17:01:12.475Z,3.7,0,-3,-1001,1,0,0,2026-09-25T17:01:12.425Z,53.6,2026-09-25T17:01:12.328Z,151.1,2026-09-25T17:01:12.423Z,55.5,1790355674400939,144403,2026-09-25T17:01:12.335Z,144.2,,,,0,,,1,2026-09-25T17:01:12.426Z,52.8,16.512,0.01,99,27.2,0.0,0,1198627887,2026-09-25T17:01:12.326Z,152.6,5.226,0.014,1,2026-09-25T17:01:12.334Z,145.1,,,,,,,,,,,,,,,,,,,187,2166.83,2026-09-25T17:01:12.424Z,55.0,0,1500,0,0,2026-09-25T17:01:12.424Z,54.3,1507,1511,1528,1493,255,2026-09-25T17:01:12.327Z,151.6,1.12,-0.39,0.0,0.0,0.0,2026-09-25T17:01:12.327Z,152.1,2026-09-25T17:01:12.334Z,144.6,2026-09-25T17:01:12.433Z,45.8,2026-09-25T17:01:12.432Z,46.3,2026-09-25T17:01:12.432Z,46.8,2026-09-25T17:01:12.335Z,143.7
2026-09-25T17:01:12.533Z,2026-09-25T17:01:14.599Z,4.05,81,False,RTL,0,0,-0.857145,0.554623,-172.542802,-0.010886,-0.011459,0.000573,39.0187654,-104.8934866,2166.82,0.358,0.0,0.0,-0.01,187.46,-0.011,-0.009,39.0187655,-104.8934866,2166.44,0.01,125.53,32,6,0.66,1.19,0.004,0.012,0.011,0,0.0,-0.02942,-9.787037,0.0,0.0,0.0,-216,0,454,16.513,0.01,0,99,18.75,1000,1000,1000,1000,0.022,0.021,0.023,0,0,0,831,0.0113,0.0019,0.0188,0.0109,790.862,41.67,-180.0,0.0,0.0,2026-09-25T17:01:12.523Z,0.002,12.568,0,2026-04-01 14:44:03,17.25,840.0,839.0,0.0,6.0,81.0,3.0,2026-09-25T17:01:12.274Z,259.7,2026-09-25T17:01:12.529Z,4.6,2026-09-25T17:01:12.530Z,3.7,0,-2,-1001,0,0,0,2026-09-25T17:01:12.525Z,8.5,2026-09-25T17:01:12.528Z,6.0,2026-09-25T17:01:12.523Z,10.3,1790355674400939,144403,2026-09-25T17:01:12.335Z,199.0,,,,0,,,1,2026-09-25T17:01:12.526Z,7.9,16.513,0.01,99,27.6,0.0,0,1198627887,2026-09-25T17:01:12.526Z,7.4,5.226,0.014,1,2026-09-25T17:01:12.334Z,199.9,,,,,,,,,,,,,,,,,,,187,2166.82,2026-09-25T17:01:12.524Z,9.8,0,1500,0,0,2026-09-25T17:01:12.524Z,9.2,1507,1511,1528,1493,255,2026-09-25T17:01:12.527Z,6.5,1.12,-0.39,0.0,0.0,0.0,2026-09-25T17:01:12.527Z,6.9,2026-09-25T17:01:12.334Z,199.4,2026-09-25T17:01:12.433Z,100.6,2026-09-25T17:01:12.432Z,101.2,2026-09-25T17:01:12.432Z,101.6,2026-09-25T17:01:12.335Z,198.6
2026-09-25T17:01:12.579Z,2026-09-25T17:01:14.645Z,4.1,82,False,RTL,0,0,-0.857718,0.55405,-172.54624,-0.004584,0.008594,-0.029794,39.0187654,-104.8934866,2166.82,0.358,0.0,0.0,-0.01,187.46,-0.011,-0.009,39.0187655,-104.8934866,2166.44,0.01,125.53,32,6,0.66,1.19,0.004,0.012,0.011,0,0.009807,-0.02942,-9.77723,0.0,0.0,0.0,-216,-1,454,16.513,0.01,0,99,18.75,1000,1000,1000,1000,0.022,0.021,0.023,0,0,0,831,0.0113,0.0019,0.0188,0.0109,790.862,41.67,-180.0,0.0,0.0,2026-09-25T17:01:12.573Z,0.002,7.688,0,2026-04-01 14:44:03,17.25,890.0,889.0,0.0,6.0,81.0,3.0,2026-09-25T17:01:12.274Z,304.9,2026-09-25T17:01:12.574Z,4.5,2026-09-25T17:01:12.575Z,3.6,0,-2,-1001,0,0,0,2026-09-25T17:01:12.525Z,53.6,2026-09-25T17:01:12.528Z,51.1,2026-09-25T17:01:12.523Z,55.5,1790355674400939,144403,2026-09-25T17:01:12.335Z,244.1,,,,0,,,1,2026-09-25T17:01:12.526Z,53.0,16.513,0.01,99,27.6,0.0,0,1198627887,2026-09-25T17:01:12.526Z,52.5,5.226,0.014,1,2026-09-25T17:01:12.334Z,245.0,,,,,,,,,,,,,,,,,,,187,2166.82,2026-09-25T17:01:12.524Z,55.0,0,1500,0,0,2026-09-25T17:01:12.524Z,54.3,1507,1511,1528,1493,255,2026-09-25T17:01:12.527Z,51.6,1.12,-0.39,0.0,0.0,0.0,2026-09-25T17:01:12.527Z,52.1,2026-09-25T17:01:12.334Z,244.6,2026-09-25T17:01:12.433Z,145.8,2026-09-25T17:01:12.432Z,146.3,2026-09-25T17:01:12.432Z,146.7,2026-09-25T17:01:12.335Z,243.7
2026-09-25T17:01:12.632Z,2026-09-25T17:01:14.698Z,4.15,83,False,RTL,0,0,-0.857718,0.552904,-172.547386,0.007448,-0.016616,-0.016043,39.0187654,-104.8934866,2166.82,0.352,0.0,0.0,0.0,187.46,-0.011,-0.009,39.0187655,-104.8934866,2166.44,0.01,125.53,32,6,0.66,1.19,0.004,0.011,0.01,0,0.0,-0.02942,-9.77723,0.0,0.0,0.0,-216,-1,454,16.517,0.0,0,99,18.75,1000,1000,1000,1000,0.022,0.021,0.023,0,0,0,831,0.0113,0.0019,0.0188,0.0109,790.862,41.67,-180.0,0.0,0.0,2026-09-25T17:01:12.623Z,0.002,11.246,0,2026-04-01 14:44:03,17.25,940.0,939.0,0.0,6.0,81.0,3.0,2026-09-25T17:01:12.274Z,358.3,2026-09-25T17:01:12.627Z,5.1,2026-09-25T17:01:12.628Z,4.2,-1,-3,-1001,1,0,0,2026-09-25T17:01:12.625Z,7.0,2026-09-25T17:01:12.528Z,104.6,2026-09-25T17:01:12.623Z,8.9,1790355674400939,144403,2026-09-25T17:01:12.335Z,297.6,,,,0,,,1,2026-09-25T17:01:12.626Z,6.4,16.513,0.01,99,27.6,0.0,0,1198627887,2026-09-25T17:01:12.526Z,106.0,5.226,0.014,1,2026-09-25T17:01:12.334Z,298.5,,,,,,,,,,,,,,,,,,,187,2166.82,2026-09-25T17:01:12.624Z,8.4,0,1500,0,0,2026-09-25T17:01:12.624Z,7.7,1507,1511,1528,1493,255,2026-09-25T17:01:12.527Z,105.0,1.12,-0.39,0.0,0.0,0.0,2026-09-25T17:01:12.527Z,105.5,2026-09-25T17:01:12.334Z,298.0,2026-09-25T17:01:12.433Z,199.2,2026-09-25T17:01:12.432Z,199.8,2026-09-25T17:01:12.432Z,200.2,2026-09-25T17:01:12.335Z,297.2
2026-09-25T17:01:12.679Z,2026-09-25T17:01:14.745Z,4.2,84,False,RTL,0,0,-0.857145,0.552331,-172.547386,0.047555,-0.012032,0.020626,39.0187654,-104.8934866,2166.82,0.352,0.0,0.0,0.0,187.46,-0.011,-0.009,39.0187655,-104.8934866,2166.44,0.01,125.53,32,6,0.66,1.19,0.004,0.011,0.01,0,0.009807,-0.02942,-9.787037,0.0,0.0,0.0,-215,-1,454,16.517,0.0,0,99,18.75,1000,1000,1000,1000,0.022,0.021,0.023,0,0,0,831,0.0113,0.0019,0.0188,0.0109,790.862,41.67,-180.0,0.0,0.0,2026-09-25T17:01:12.673Z,0.003,7.728,0,2026-04-01 14:44:03,17.25,990.0,989.0,0.0,6.0,81.0,3.0,2026-09-25T17:01:12.274Z,404.9,2026-09-25T17:01:12.674Z,4.5,2026-09-25T17:01:12.675Z,3.7,-1,-3,-1001,1,0,0,2026-09-25T17:01:12.625Z,53.6,2026-09-25T17:01:12.528Z,151.1,2026-09-25T17:01:12.623Z,55.5,1790355674400939,144403,2026-09-25T17:01:12.335Z,344.2,,,,0,,,1,2026-09-25T17:01:12.626Z,53.0,16.513,0.01,99,27.6,0.0,0,1198627887,2026-09-25T17:01:12.526Z,152.6,5.226,0.014,1,2026-09-25T17:01:12.334Z,345.1,,,,,,,,,,,,,,,,,,,187,2166.82,2026-09-25T17:01:12.624Z,55.0,0,1500,0,0,2026-09-25T17:01:12.624Z,54.3,1507,1511,1528,1493,255,2026-09-25T17:01:12.527Z,151.6,1.12,-0.39,0.0,0.0,0.0,2026-09-25T17:01:12.527Z,152.1,2026-09-25T17:01:12.334Z,344.6,2026-09-25T17:01:12.433Z,245.8,2026-09-25T17:01:12.432Z,246.3,2026-09-25T17:01:12.432Z,246.8,2026-09-25T17:01:12.335Z,343.7
2026-09-25T17:01:12.738Z,2026-09-25T17:01:14.804Z,4.25,85,False,RTL,0,0,-0.857718,0.553477,-172.54624,-0.03495,0.044118,0.025783,39.0187654,-104.8934866,2166.81,0.348,0.0,0.0,0.0,187.46,-0.011,-0.009,39.0187655,-104.8934866,2166.45,0.01,120.96,32,6,0.66,1.19,0.005,0.01,0.008,0,0.0,-0.02942,-9.787037,0.0,0.0,0.0,-215,-1,454,16.507,0.01,0,99,19.0,1000,1000,1000,1000,0.022,0.021,0.023,0,0,0,831,0.0113,0.0019,0.0188,0.0109,790.862,41.67,-180.0,0.0,0.0,2026-09-25T17:01:12.723Z,0.002,17.568,0,2026-04-01 14:44:04,17.25,-14.7,-15.8,0.0,6.0,81.0,3.0,2026-09-25T17:01:12.274Z,464.7,2026-09-25T17:01:12.729Z,9.4,2026-09-25T17:01:12.730Z,8.6,-1,-3,-999,0,0,0,2026-09-25T17:01:12.725Z,13.4,2026-09-25T17:01:12.728Z,10.8,2026-09-25T17:01:12.723Z,15.2,1790355674400939,144403,2026-09-25T17:01:12.335Z,404.0,,,,0,,,1,2026-09-25T17:01:12.726Z,12.7,16.507,0.01,99,26.6,0.0,0,1198627887,2026-09-25T17:01:12.726Z,12.3,5.226,0.014,1,2026-09-25T17:01:12.334Z,404.9,,,,,,,,,,,,,,,,,,,187,2166.81,2026-09-25T17:01:12.724Z,14.7,0,1500,0,0,2026-09-25T17:01:12.724Z,14.1,1507,1511,1528,1493,255,2026-09-25T17:01:12.727Z,11.3,1.12,-0.39,0.0,0.0,0.0,2026-09-25T17:01:12.727Z,11.8,2026-09-25T17:01:12.334Z,404.4,2026-09-25T17:01:12.433Z,305.6,2026-09-25T17:01:12.432Z,306.1,2026-09-25T17:01:12.432Z,306.6,2026-09-25T17:01:12.335Z,403.5
2026-09-25T17:01:12.779Z,2026-09-25T17:01:14.845Z,4.3,86,False,RTL,0,0,-0.858864,0.553477,-172.546813,-0.004584,0.021199,-0.02521,39.0187654,-104.8934866,2166.81,0.348,0.0,0.0,0.0,187.46,-0.011,-0.009,39.0187655,-104.8934866,2166.45,0.01,120.96,32,6,0.66,1.19,0.005,0.01,0.008,0,0.009807,-0.039227,-9.787037,0.0,0.0,0.0,-216,-1,454,16.507,0.01,0,99,19.0,1000,1000,1000,1000,0.022,0.021,0.023,0,0,0,831,0.0113,0.0019,0.0188,0.0109,790.862,41.67,-180.0,0.0,0.0,2026-09-25T17:01:12.773Z,0.002,7.761,0,2026-04-01 14:44:04,17.25,35.3,34.2,0.0,6.0,81.0,3.0,2026-09-25T17:01:12.274Z,504.9,2026-09-25T17:01:12.774Z,4.5,2026-09-25T17:01:12.775Z,3.7,-1,-3,-999,0,0,0,2026-09-25T17:01:12.725Z,53.6,2026-09-25T17:01:12.728Z,51.1,2026-09-25T17:01:12.723Z,55.5,1790355674400939,144403,2026-09-25T17:01:12.335Z,444.2,,,,0,,,1,2026-09-25T17:01:12.726Z,52.9,16.507,0.01,99,26.6,0.0,0,1198627887,2026-09-25T17:01:12.726Z,52.5,5.226,0.014,1,2026-09-25T17:01:12.334Z,445.1,,,,,,,,,,,,,,,,,,,187,2166.81,2026-09-25T17:01:12.724Z,55.0,0,1500,0,0,2026-09-25T17:01:12.724Z,54.3,1507,1511,1528,1493,255,2026-09-25T17:01:12.727Z,51.5,1.12,-0.39,0.0,0.0,0.0,2026-09-25T17:01:12.727Z,52.0,2026-09-25T17:01:12.334Z,444.6,2026-09-25T17:01:12.433Z,345.8,2026-09-25T17:01:12.432Z,346.4,2026-09-25T17:01:12.432Z,346.8,2026-09-25T17:01:12.335Z,443.7
2026-09-25T17:01:12.831Z,2026-09-25T17:01:14.897Z,4.35,87,False,RTL,0,0,-0.860583,0.552904,-172.545667,-0.00974,0.007448,-0.014897,39.0187654,-104.8934866,2166.81,0.346,0.0,0.0,0.0,187.46,-0.011,-0.009,39.0187655,-104.8934866,2166.45,0.01,120.96,32,6,0.66,1.19,0.005,0.01,0.008,0,0.0,-0.02942,-9.787037,0.0,0.0,0.0,-216,-1,454,16.512,0.0,0,99,19.0,1000,1000,1000,1000,0.022,0.021,0.023,0,0,0,831,0.0113,0.0019,0.0188,0.0109,790.862,41.67,-180.0,0.0,0.0,2026-09-25T17:01:12.823Z,0.003,10.642,0,2026-04-01 14:44:04,17.25,85.3,84.2,0.0,6.0,81.0,3.0,2026-09-25T17:01:12.274Z,557.7,2026-09-25T17:01:12.827Z,4.5,2026-09-25T17:01:12.828Z,3.7,-1,-3,-1000,0,0,0,2026-09-25T17:01:12.825Z,6.5,2026-09-25T17:01:12.728Z,103.9,2026-09-25T17:01:12.823Z,8.3,1790355674400939,144403,2026-09-25T17:01:12.335Z,497.0,,,,0,,,1,2026-09-25T17:01:12.826Z,5.8,16.507,0.01,99,26.6,0.0,0,1198627887,2026-09-25T17:01:12.726Z,105.3,5.226,0.014,1,2026-09-25T17:01:12.334Z,497.9,,,,,,,,,,,,,,,,,,,187,2166.81,2026-09-25T17:01:12.824Z,7.8,0,1500,0,0,2026-09-25T17:01:12.824Z,7.2,1507,1511,1528,1493,255,2026-09-25T17:01:12.727Z,104.4,1.12,-0.39,0.0,0.0,0.0,2026-09-25T17:01:12.727Z,104.8,2026-09-25T17:01:12.334Z,497.4,2026-09-25T17:01:12.433Z,398.6,2026-09-25T17:01:12.432Z,399.2,2026-09-25T17:01:12.432Z,399.6,2026-09-25T17:01:12.335Z,496.6
2026-09-25T17:01:12.879Z,2026-09-25T17:01:14.945Z,4.4,88,False,RTL,0,0,-0.861156,0.552904,-172.542802,-0.002865,0.018908,0.002865,39.0187654,-104.8934866,2166.81,0.346,0.0,0.0,0.0,187.46,-0.011,-0.009,39.0187655,-104.8934866,2166.45,0.01,120.96,32,6,0.66,1.19,0.005,0.01,0.008,0,0.009807,-0.02942,-9.77723,0.0,0.0,0.0,-216,-1,454,16.512,0.0,0,99,19.0,1000,1000,1000,1000,0.022,0.021,0.023,0,0,0,831,0.0113,0.0019,0.0188,0.0109,790.862,41.67,-180.0,0.0,0.0,2026-09-25T17:01:12.873Z,0.002,7.678,0,2026-04-01 14:44:04,17.25,135.3,134.2,0.0,6.0,81.0,3.0,2026-09-25T17:01:12.274Z,604.9,2026-09-25T17:01:12.874Z,4.5,2026-09-25T17:01:12.875Z,3.6,-1,-3,-1000,0,0,0,2026-09-25T17:01:12.825Z,53.6,2026-09-25T17:01:12.728Z,151.0,2026-09-25T17:01:12.823Z,55.5,1790355674400939,144403,2026-09-25T17:01:12.335Z,544.1,,,,0,,,1,2026-09-25T17:01:12.826Z,53.0,16.507,0.01,99,26.6,0.0,0,1198627887,2026-09-25T17:01:12.726Z,152.4,5.226,0.014,1,2026-09-25T17:01:12.334Z,545.0,,,,,,,,,,,,,,,,,,,187,2166.81,2026-09-25T17:01:12.824Z,55.0,0,1500,0,0,2026-09-25T17:01:12.824Z,54.3,1507,1511,1528,1493,255,2026-09-25T17:01:12.727Z,151.5,1.12,-0.39,0.0,0.0,0.0,2026-09-25T17:01:12.727Z,152.0,2026-09-25T17:01:12.334Z,544.6,2026-09-25T17:01:12.433Z,445.8,2026-09-25T17:01:12.432Z,446.3,2026-09-25T17:01:12.432Z,446.7,2026-09-25T17:01:12.335Z,543.7
2026-09-25T17:01:12.935Z,2026-09-25T17:01:15.001Z,4.45,89,False,RTL,0,0,-0.861156,0.552904,-172.54051,-0.012605,-0.006875,0.000573,39.0187654,-104.8934866,2166.81,0.346,0.0,0.0,0.0,187.46,-0.011,-0.009,39.0187655,-104.8934866,2166.45,0.01,228.36,32,6,0.66,1.19,0.005,0.01,0.008,0,0.0,-0.039227,-9.787037,0.0,0.0,0.0,-216,-1,454,16.506,0.01,0,99,19.0,1000,1000,1000,1000,0.022,0.023,0.024,0,0,0,831,0.0156,0.0022,0.0083,0.0012,790.833,41.71,-180.0,0.0,0.0,2026-09-25T17:01:12.923Z,0.003,13.964,0,2026-04-01 14:44:04,17.25,185.3,184.2,0.0,6.0,81.0,3.0,2026-09-25T17:01:12.274Z,661.2,2026-09-25T17:01:12.929Z,5.9,2026-09-25T17:01:12.930Z,5.0,-1,-2,-1000,0,0,0,2026-09-25T17:01:12.925Z,9.8,2026-09-25T17:01:12.928Z,7.3,2026-09-25T17:01:12.923Z,11.7,1790355674400939,144403,2026-09-25T17:01:12.335Z,600.4,,,,0,,,1,2026-09-25T17:01:12.926Z,9.2,16.506,0.01,99,26.5,0.0,0,1198627887,2026-09-25T17:01:12.926Z,8.7,5.226,0.014,1,2026-09-25T17:01:12.334Z,601.3,,,,,,,,,,,,,,,,,,,187,2166.81,2026-09-25T17:01:12.924Z,11.2,0,1500,0,0,2026-09-25T17:01:12.924Z,10.5,1507,1511,1528,1493,255,2026-09-25T17:01:12.927Z,7.8,1.12,-0.39,0.0,0.0,0.0,2026-09-25T17:01:12.927Z,8.3,2026-09-25T17:01:12.334Z,600.9,2026-09-25T17:01:12.935Z,0.4,2026-09-25T17:01:12.934Z,0.8,2026-09-25T17:01:12.934Z,1.3,2026-09-25T17:01:12.335Z,600.0
2026-09-25T17:01:12.979Z,2026-09-25T17:01:15.045Z,4.5,90,False,RTL,0,0,-0.861156,0.551758,-172.538219,-0.011459,-0.010886,0.010886,39.0187654,-104.8934866,2166.81,0.346,0.0,0.0,0.0,187.46,-0.011,-0.009,39.0187655,-104.8934866,2166.45,0.01,228.36,32,6,0.66,1.19,0.005,0.01,0.008,0,0.0,-0.02942,-9.77723,0.0,0.0,0.0,-217,-1,454,16.506,0.01,0,99,19.0,1000,1000,1000,1000,0.022,0.023,0.024,0,0,0,831,0.0156,0.0022,0.0083,0.0012,790.833,41.71,-180.0,0.0,0.0,2026-09-25T17:01:12.973Z,0.003,7.696,0,2026-04-01 14:44:04,17.25,235.3,234.2,0.0,6.0,81.0,3.0,2026-09-25T17:01:12.274Z,704.9,2026-09-25T17:01:12.974Z,4.5,2026-09-25T17:01:12.975Z,3.7,-1,-2,-1000,0,0,0,2026-09-25T17:01:12.925Z,53.6,2026-09-25T17:01:12.928Z,51.0,2026-09-25T17:01:12.923Z,55.4,1790355674400939,144403,2026-09-25T17:01:12.335Z,644.1,,,,0,,,1,2026-09-25T17:01:12.926Z,52.9,16.506,0.01,99,26.5,0.0,0,1198627887,2026-09-25T17:01:12.926Z,52.4,5.226,0.014,1,2026-09-25T17:01:12.334Z,645.0,,,,,,,,,,,,,,,,,,,187,2166.81,2026-09-25T17:01:12.924Z,54.9,0,1500,0,0,2026-09-25T17:01:12.924Z,54.2,1507,1511,1528,1493,255,2026-09-25T17:01:12.927Z,51.5,1.12,-0.39,0.0,0.0,0.0,2026-09-25T17:01:12.927Z,52.0,2026-09-25T17:01:12.334Z,644.6,2026-09-25T17:01:12.935Z,44.1,2026-09-25T17:01:12.934Z,44.5,2026-09-25T17:01:12.934Z,45.0,2026-09-25T17:01:12.335Z,643.7
